#
# Results on Monday February 15 2016 17:12:20 UTC.
# USER AGENT: Mozilla/5.0 (Windows NT 10.0; Win64; x64) AppleWebKit/537.36 (KHTML, like Gecko) Chrome/48.0.2564.109 Safari/537.36
# Design number was non-random = 0
#
# Columns below this comment are as follows:
# 1. Time results were received.
# 2. MD5 hash of participant's IP address.
# 3. Controller name.
# 4. Item number.
# 5. Element number.
# 6. Type.
# 7. Group.
# 8. Field name.
# 9. Field value.
1455556340,d1c82a2a2d562fcacf514bd21294fcd3,Form,2,0,consent,NULL,workerID,
1455556340,d1c82a2a2d562fcacf514bd21294fcd3,Form,3,0,consent,NULL,consent,yes
# The lines below this comment are in groups of 2.
# The formats of the lines in each of these groups are as follows:
#
# Line 1:
#     Col. 1: Time results were received.
#     Col. 2: MD5 hash of participant's IP address.
#     Col. 3: Controller name.
#     Col. 4: Item number.
#     Col. 5: Element number.
#     Col. 6: Type.
#     Col. 7: Group.
#     Col. 8: Sentence (or sentence MD5).
# Line 2:
#     Col. 1: Time results were received.
#     Col. 2: MD5 hash of participant's IP address.
#     Col. 3: Controller name.
#     Col. 4: Item number.
#     Col. 5: Element number.
#     Col. 6: Type.
#     Col. 7: Group.
#     Col. 8: Question (NULL if none).
#     Col. 9: Answer.
#     Col. 10: Whether or not answer was correct (NULL if N/A).
#     Col. 11: Time taken to answer.
1455556340,d1c82a2a2d562fcacf514bd21294fcd3,AcceptabilityJudgment,12,0,practice,NULL,div%2Cp%2CContext: It was Christmas time%2C and everyone was really excited.%2Cp%2CTarget: The kids decorated the ornaments onto the tree.
1455556340,d1c82a2a2d562fcacf514bd21294fcd3,AcceptabilityJudgment,12,0,practice,NULL,NULL,5,NULL,3687
1455556340,d1c82a2a2d562fcacf514bd21294fcd3,AcceptabilityJudgment,13,0,practice,NULL,div%2Cp%2CContext: John asked me yesterday who all was going to be coming over.%2Cp%2CTarget: I know that Bill and Mary were planning on attending the party last night.
1455556340,d1c82a2a2d562fcacf514bd21294fcd3,AcceptabilityJudgment,13,0,practice,NULL,NULL,5,NULL,6126
1455556340,d1c82a2a2d562fcacf514bd21294fcd3,AcceptabilityJudgment,14,0,practice,NULL,div%2Cp%2CContext: Mary is usually fairly skeptical of public officials.%2Cp%2CTarget: Which politician did she believe the scientist and?
1455556340,d1c82a2a2d562fcacf514bd21294fcd3,AcceptabilityJudgment,14,0,practice,NULL,NULL,1,NULL,1496
1455556340,d1c82a2a2d562fcacf514bd21294fcd3,AcceptabilityJudgment,15,0,practice,NULL,div%2Cp%2CContext: Unfortunately%2C Susy was a little bit out of the social loop.%2Cp%2CTarget: John doubted that she knew anything of what went on after work.
1455556340,d1c82a2a2d562fcacf514bd21294fcd3,AcceptabilityJudgment,15,0,practice,NULL,NULL,3,NULL,1784
1455556340,d1c82a2a2d562fcacf514bd21294fcd3,AcceptabilityJudgment,271,0,filler-110,75,div%2Cp%2CContext: There was general outrage when a photograph which won several art competitions was revealed to have been photoshopped.%2Cp%2CTarget: One competitor has repeatedly insinuated that it misrepresented itself as an unaltered piece of photographic skill.
1455556340,d1c82a2a2d562fcacf514bd21294fcd3,AcceptabilityJudgment,271,0,filler-110,75,NULL,5,NULL,3780
1455556340,d1c82a2a2d562fcacf514bd21294fcd3,AcceptabilityJudgment,53,0,almandine-1,7,div%2Cp%2CContext: A recent interview showed a few newscasters making disparaging remarks about fashion models.%2Cp%2CTarget: The gorgeous supermodel boasted that Hannah consistently underestimated herself when it came to giving public speeches.
1455556340,d1c82a2a2d562fcacf514bd21294fcd3,AcceptabilityJudgment,53,0,almandine-1,7,NULL,3,NULL,5067
1455556340,d1c82a2a2d562fcacf514bd21294fcd3,AcceptabilityJudgment,292,0,filler-110,96,div%2Cp%2CContext: From time to time I like to get away from the city and reconnect with nature.%2Cp%2CTarget: The grimy conservationist was convinced that I could be converted to his cause%2C despite my stance on federal regulation.
1455556340,d1c82a2a2d562fcacf514bd21294fcd3,AcceptabilityJudgment,292,0,filler-110,96,NULL,2,NULL,3432
1455556340,d1c82a2a2d562fcacf514bd21294fcd3,AcceptabilityJudgment,284,0,filler-110,88,div%2Cp%2CContext: Until quite recently%2C I hadn't realized that hyenas are actually more closely related to cats than to dogs.%2Cp%2CTarget: The condescending biologist claimed that I was the first person he had met who didn't know this.
1455556340,d1c82a2a2d562fcacf514bd21294fcd3,AcceptabilityJudgment,284,0,filler-110,88,NULL,6,NULL,5097
1455556340,d1c82a2a2d562fcacf514bd21294fcd3,AcceptabilityJudgment,81,0,almandine-5,11,div%2Cp%2CContext: I suggested that the kitchen should hire someone new.%2Cp%2CTarget: The buxom waitress mentioned that I wholeheartedly recommended herself for the new position.
1455556340,d1c82a2a2d562fcacf514bd21294fcd3,AcceptabilityJudgment,81,0,almandine-5,11,NULL,2,NULL,3530
1455556340,d1c82a2a2d562fcacf514bd21294fcd3,AcceptabilityJudgment,246,0,filler-100,50,div%2Cp%2CContext: A couple of little boys were causing some problems for the other children at the playground.%2Cp%2CTarget: The little girl wondered if the boy who was ignoring her had played with anyone during recess.
1455556340,d1c82a2a2d562fcacf514bd21294fcd3,AcceptabilityJudgment,246,0,filler-100,50,NULL,5,NULL,5627
1455556340,d1c82a2a2d562fcacf514bd21294fcd3,AcceptabilityJudgment,255,0,filler-100,59,div%2Cp%2CContext: The school has a notorious bully.%2Cp%2CTarget: Pauline definitely knows who the bully%2C who beat up George%2C was harassing this week.
1455556340,d1c82a2a2d562fcacf514bd21294fcd3,AcceptabilityJudgment,255,0,filler-100,59,NULL,2,NULL,1836
1455556340,d1c82a2a2d562fcacf514bd21294fcd3,AcceptabilityJudgment,153,0,almandine-5,23,div%2Cp%2CContext: I had been harping on the issue of immigration reform for a long while.%2Cp%2CTarget: The republican congressman complained that I maliciously misrepresented himself to young voters across the country.
1455556340,d1c82a2a2d562fcacf514bd21294fcd3,AcceptabilityJudgment,153,0,almandine-5,23,NULL,5,NULL,6613
1455556340,d1c82a2a2d562fcacf514bd21294fcd3,AcceptabilityJudgment,254,0,filler-100,58,div%2Cp%2CContext: A couple of chatty new neighbors moved into the neighborhood recently.%2Cp%2CTarget: Billy forgot if the neighbor who moved from Indiana was dating Susan this time last year.
1455556340,d1c82a2a2d562fcacf514bd21294fcd3,AcceptabilityJudgment,254,0,filler-100,58,NULL,3,NULL,2918
1455556340,d1c82a2a2d562fcacf514bd21294fcd3,AcceptabilityJudgment,257,0,filler-110,61,div%2Cp%2CContext: In a widely publicized television debate%2C I argued with several religious leaders about the reliability of scientific evidence.%2Cp%2CTarget: The evangelical pastor insisted that I clearly betrayed myself with comments about the scientific method.
1455556340,d1c82a2a2d562fcacf514bd21294fcd3,AcceptabilityJudgment,257,0,filler-110,61,NULL,3,NULL,2178
1455556340,d1c82a2a2d562fcacf514bd21294fcd3,AcceptabilityJudgment,189,0,almandine-5,29,div%2Cp%2CContext: I held meetings with senators in DC.%2Cp%2CTarget: The corrupt senator insisted that I would definitely appoint himself as the new county commissioner before the election.
1455556340,d1c82a2a2d562fcacf514bd21294fcd3,AcceptabilityJudgment,189,0,almandine-5,29,NULL,5,NULL,11568
1455556340,d1c82a2a2d562fcacf514bd21294fcd3,AcceptabilityJudgment,250,0,filler-100,54,div%2Cp%2CContext: The local teenagers are known for being very cruel.%2Cp%2CTarget: Alex wondered if the teenager who was a clever prankster would target John for his next prank.
1455556340,d1c82a2a2d562fcacf514bd21294fcd3,AcceptabilityJudgment,250,0,filler-100,54,NULL,2,NULL,13987
1455556340,d1c82a2a2d562fcacf514bd21294fcd3,AcceptabilityJudgment,258,0,filler-110,62,div%2Cp%2CContext: After the extremely dull meeting%2C I convinced some coworkers to go out for drinks.%2Cp%2CTarget: The office secretary said that I thoroughly embarrassed myself at the bar.
1455556340,d1c82a2a2d562fcacf514bd21294fcd3,AcceptabilityJudgment,258,0,filler-110,62,NULL,5,NULL,3266
1455556340,d1c82a2a2d562fcacf514bd21294fcd3,AcceptabilityJudgment,218,0,almandine-4,34,div%2Cp%2CContext: A self-help book encouraged gambling addicts to take up exercising to avoid temptation.%2Cp%2CTarget: The wealthy heiress said that it helpfully prevented himself from losing any more money at the casino.
1455556340,d1c82a2a2d562fcacf514bd21294fcd3,AcceptabilityJudgment,218,0,almandine-4,34,NULL,5,NULL,3724
1455556340,d1c82a2a2d562fcacf514bd21294fcd3,AcceptabilityJudgment,262,0,filler-110,66,div%2Cp%2CContext: In a job interview for a conservative law firm%2C I made the mistake of talking about my ties to the communist party.%2Cp%2CTarget: The officious interviewer disliked that I aligned myself so closely with such left-leaning policies.
1455556340,d1c82a2a2d562fcacf514bd21294fcd3,AcceptabilityJudgment,262,0,filler-110,66,NULL,6,NULL,3213
1455556340,d1c82a2a2d562fcacf514bd21294fcd3,AcceptabilityJudgment,237,0,filler-100,41,div%2Cp%2CContext: This town has many very well-qualified contractors that you could hire.%2Cp%2CTarget: The homeowner asked who the contractor who fixed the roof would hire for the next job.
1455556340,d1c82a2a2d562fcacf514bd21294fcd3,AcceptabilityJudgment,237,0,filler-100,41,NULL,2,NULL,17225
1455556340,d1c82a2a2d562fcacf514bd21294fcd3,AcceptabilityJudgment,161,0,almandine-1,25,div%2Cp%2CContext: One of New York's best-known critics was featured in a Bon Apetit expose on flourishing counterculture movements in Brooklyn.%2Cp%2CTarget: The charming butcher boasted that Brandon highly praised himself for a job skillfully and tastefully done.
1455556340,d1c82a2a2d562fcacf514bd21294fcd3,AcceptabilityJudgment,161,0,almandine-1,25,NULL,7,NULL,4291
1455556340,d1c82a2a2d562fcacf514bd21294fcd3,AcceptabilityJudgment,244,0,filler-100,48,div%2Cp%2CContext: A gardener was doing some shopping at Home Depot today.%2Cp%2CTarget: The contractor wondered if the gardener%2C who loves tulips%2C had met anyone at the nursery.
1455556340,d1c82a2a2d562fcacf514bd21294fcd3,AcceptabilityJudgment,244,0,filler-100,48,NULL,4,NULL,3438
1455556340,d1c82a2a2d562fcacf514bd21294fcd3,AcceptabilityJudgment,276,0,filler-110,80,div%2Cp%2CContext: A fake news program ruffled a lot of feathers with a recent skit about famous politicians.%2Cp%2CTarget: The political pundit was outraged that it billed itself as a legitimate news source.
1455556340,d1c82a2a2d562fcacf514bd21294fcd3,AcceptabilityJudgment,276,0,filler-110,80,NULL,5,NULL,4254
1455556340,d1c82a2a2d562fcacf514bd21294fcd3,AcceptabilityJudgment,132,0,almandine-2,20,div%2Cp%2CContext: One of the union reps adressed the issue of over-working student interns.%2Cp%2CTarget: The industrious schoolgirl said that Matthew usually allowed himself to take a break from archiving.
1455556340,d1c82a2a2d562fcacf514bd21294fcd3,AcceptabilityJudgment,132,0,almandine-2,20,NULL,5,NULL,124631
1455556340,d1c82a2a2d562fcacf514bd21294fcd3,AcceptabilityJudgment,266,0,filler-110,70,div%2Cp%2CContext: While on a fishing trip off the coast of Alaska%2C I caught an enormous salmon.%2Cp%2CTarget: The fishing guide asked if I wanted to ship myself the frozen fish to enjoy at home.
1455556340,d1c82a2a2d562fcacf514bd21294fcd3,AcceptabilityJudgment,266,0,filler-110,70,NULL,2,NULL,2119
1455556340,d1c82a2a2d562fcacf514bd21294fcd3,AcceptabilityJudgment,242,0,filler-100,46,div%2Cp%2CContext: Some of the businessmen were very vocal about their politics.%2Cp%2CTarget: The oilman wondered if the businessman who hated fossil fuels had fired someone from his company.
1455556340,d1c82a2a2d562fcacf514bd21294fcd3,AcceptabilityJudgment,242,0,filler-100,46,NULL,3,NULL,2219
1455556340,d1c82a2a2d562fcacf514bd21294fcd3,AcceptabilityJudgment,96,0,almandine-2,14,div%2Cp%2CContext: One of the campus RAs caught some college students heading out for the evening.%2Cp%2CTarget: The frat boy mentioned that Courtney sneakily photographed herself on the way to the party.
1455556340,d1c82a2a2d562fcacf514bd21294fcd3,AcceptabilityJudgment,96,0,almandine-2,14,NULL,6,NULL,2970
1455556340,d1c82a2a2d562fcacf514bd21294fcd3,AcceptabilityJudgment,264,0,filler-110,68,div%2Cp%2CContext: At a consultation with a tax attorney%2C I complained about how high property taxes are.%2Cp%2CTarget: The accountant replied that I could save myself a lot of money by diversifying my interests.
1455556340,d1c82a2a2d562fcacf514bd21294fcd3,AcceptabilityJudgment,264,0,filler-110,68,NULL,7,NULL,5211
1455556340,d1c82a2a2d562fcacf514bd21294fcd3,AcceptabilityJudgment,268,0,filler-110,72,div%2Cp%2CContext: I've never been to a protest or rally in my life.%2Cp%2CTarget: The FBI agent said that I cleared myself of wrongdoing by being so thoroughly a-political.
1455556340,d1c82a2a2d562fcacf514bd21294fcd3,AcceptabilityJudgment,268,0,filler-110,72,NULL,6,NULL,2797
1455556340,d1c82a2a2d562fcacf514bd21294fcd3,AcceptabilityJudgment,168,0,almandine-2,26,div%2Cp%2CContext: One of the key witnesses was called into question during the trial.%2Cp%2CTarget: The friendly receptionist admitted that Daniel apparently identified himself as a potential suspect in an ongoing investigation.
1455556340,d1c82a2a2d562fcacf514bd21294fcd3,AcceptabilityJudgment,168,0,almandine-2,26,NULL,5,NULL,2548
1455556340,d1c82a2a2d562fcacf514bd21294fcd3,AcceptabilityJudgment,249,0,filler-100,53,div%2Cp%2CContext: The neighboring city has some really excellent butchers.%2Cp%2CTarget: Joan didn't remember who the butcher who sold organic beef had hired to deliver his meat.
1455556340,d1c82a2a2d562fcacf514bd21294fcd3,AcceptabilityJudgment,249,0,filler-100,53,NULL,2,NULL,3836
1455556340,d1c82a2a2d562fcacf514bd21294fcd3,AcceptabilityJudgment,265,0,filler-110,69,div%2Cp%2CContext: Since becoming a devout buddhist%2C I haven't eaten any meat.%2Cp%2CTarget: The local butcher doesn't understand why I would limit myself to only eating vegetables.
1455556340,d1c82a2a2d562fcacf514bd21294fcd3,AcceptabilityJudgment,265,0,filler-110,69,NULL,6,NULL,4409
1455556340,d1c82a2a2d562fcacf514bd21294fcd3,AcceptabilityJudgment,232,0,almandine-6,36,div%2Cp%2CContext: I came up in a conversation about promotion possibilities in the office.%2Cp%2CTarget: The exasperated secretary declared that I unfairly denied himself a chance at advancing in the company.
1455556340,d1c82a2a2d562fcacf514bd21294fcd3,AcceptabilityJudgment,232,0,almandine-6,36,NULL,6,NULL,6265
1455556340,d1c82a2a2d562fcacf514bd21294fcd3,AcceptabilityJudgment,285,0,filler-110,89,div%2Cp%2CContext: Unlike many applicants for the job%2C I had carefully proofread my application before submitting it.%2Cp%2CTarget: The bossy secretary mentioned that I was the only person to properly use a semicolon.
1455556340,d1c82a2a2d562fcacf514bd21294fcd3,AcceptabilityJudgment,285,0,filler-110,89,NULL,6,NULL,1664
1455556340,d1c82a2a2d562fcacf514bd21294fcd3,AcceptabilityJudgment,248,0,filler-100,52,div%2Cp%2CContext: There was one young fan of the author who was particularly enthusiastic about the new book.%2Cp%2CTarget: The author asked if the young fan%2C who organized the book-signing%2C had invited Mary to the event.
1455556340,d1c82a2a2d562fcacf514bd21294fcd3,AcceptabilityJudgment,248,0,filler-100,52,NULL,3,NULL,1459
1455556340,d1c82a2a2d562fcacf514bd21294fcd3,AcceptabilityJudgment,38,0,almandine-4,4,div%2Cp%2CContext: In a highly contentious criminal case%2C the testimony was frequently misquoted.%2Cp%2CTarget: The male witness said that it completely misrepresented herself in the trial but the jury didn't buy it.
1455556340,d1c82a2a2d562fcacf514bd21294fcd3,AcceptabilityJudgment,38,0,almandine-4,4,NULL,3,NULL,3141
1455556340,d1c82a2a2d562fcacf514bd21294fcd3,AcceptabilityJudgment,245,0,filler-100,49,div%2Cp%2CContext: The company put several employees in charge of the hiring process.%2Cp%2CTarget: The applicant asked who the employee who conducted the interviews would hire if he could.
1455556340,d1c82a2a2d562fcacf514bd21294fcd3,AcceptabilityJudgment,245,0,filler-100,49,NULL,4,NULL,2109
1455556340,d1c82a2a2d562fcacf514bd21294fcd3,AcceptabilityJudgment,286,0,filler-110,90,div%2Cp%2CContext: At a baseball game last weekend%2C I caught a fly ball hit into the stands.%2Cp%2CTarget: The concession salesman was impressed that I hadn't hurt my hand in the attempt.
1455556340,d1c82a2a2d562fcacf514bd21294fcd3,AcceptabilityJudgment,286,0,filler-110,90,NULL,5,NULL,1802
1455556340,d1c82a2a2d562fcacf514bd21294fcd3,AcceptabilityJudgment,139,0,almandine-3,21,div%2Cp%2CContext: The newspaper was concerned with the accuracy of some of the statements made to the public.%2Cp%2CTarget: The trustworthy policeman reported that it roundly criticized himself for the error during the trial.
1455556340,d1c82a2a2d562fcacf514bd21294fcd3,AcceptabilityJudgment,139,0,almandine-3,21,NULL,5,NULL,2748
1455556340,d1c82a2a2d562fcacf514bd21294fcd3,AcceptabilityJudgment,281,0,filler-110,85,div%2Cp%2CContext: I went skating yesterday and fell on the ice.%2Cp%2CTarget: The ER doctor said that I was lucky to have not broken my leg.
1455556340,d1c82a2a2d562fcacf514bd21294fcd3,AcceptabilityJudgment,281,0,filler-110,85,NULL,7,NULL,2261
1455556340,d1c82a2a2d562fcacf514bd21294fcd3,AcceptabilityJudgment,260,0,filler-110,64,div%2Cp%2CContext: At a concert last night%2C I was struggling to find a friend who had become separated from the group.%2Cp%2CTarget: The security guard noted that I had shouted myself hoarse and offered to help.
1455556340,d1c82a2a2d562fcacf514bd21294fcd3,AcceptabilityJudgment,260,0,filler-110,64,NULL,7,NULL,6417
1455556340,d1c82a2a2d562fcacf514bd21294fcd3,AcceptabilityJudgment,146,0,almandine-4,22,div%2Cp%2CContext: A formal complaint mentioned an unpleasant incident on set yesterday.%2Cp%2CTarget: The beautiful supermodel said that it uncharitably described himself as cruel and abusive in the workplace.
1455556340,d1c82a2a2d562fcacf514bd21294fcd3,AcceptabilityJudgment,146,0,almandine-4,22,NULL,6,NULL,4580
1455556340,d1c82a2a2d562fcacf514bd21294fcd3,AcceptabilityJudgment,269,0,filler-110,73,div%2Cp%2CContext: Many critics were surprised that the novel so clearly referenced the author's troubled home life.%2Cp%2CTarget: The publicist insists that it clearly shows itself to be a phenomenal work of art.
1455556340,d1c82a2a2d562fcacf514bd21294fcd3,AcceptabilityJudgment,269,0,filler-110,73,NULL,5,NULL,62310
1455556340,d1c82a2a2d562fcacf514bd21294fcd3,AcceptabilityJudgment,278,0,filler-110,82,div%2Cp%2CContext: Before the long car trip%2C the dog walker tried to get the puppy to play a lot in the yard.%2Cp%2CTarget: The dog's owner hoped it would tire itself out before they had to drive across the country.
1455556340,d1c82a2a2d562fcacf514bd21294fcd3,AcceptabilityJudgment,278,0,filler-110,82,NULL,5,NULL,1674
1455556340,d1c82a2a2d562fcacf514bd21294fcd3,AcceptabilityJudgment,182,0,almandine-4,28,div%2Cp%2CContext: The new evidence was very persuasive in deciding the outcome of the trial.%2Cp%2CTarget: The serious newswoman reported that it fully convinced himself that the testimony was false and unreliable.
1455556340,d1c82a2a2d562fcacf514bd21294fcd3,AcceptabilityJudgment,182,0,almandine-4,28,NULL,4,NULL,3213
1455556340,d1c82a2a2d562fcacf514bd21294fcd3,AcceptabilityJudgment,282,0,filler-110,86,div%2Cp%2CContext: Last week the bookstore I frequently visit was having a huge sale on new-release hardcovers.%2Cp%2CTarget: The cashier mentioned that I bought more books than anyone else.
1455556340,d1c82a2a2d562fcacf514bd21294fcd3,AcceptabilityJudgment,282,0,filler-110,86,NULL,6,NULL,4466
1455556340,d1c82a2a2d562fcacf514bd21294fcd3,AcceptabilityJudgment,287,0,filler-110,91,div%2Cp%2CContext: At a casual cocktail party%2C I was forced to admit that I'm terrible at charades.%2Cp%2CTarget: The gracious hostess insisted that I must be better than I was claiming.
1455556340,d1c82a2a2d562fcacf514bd21294fcd3,AcceptabilityJudgment,287,0,filler-110,91,NULL,6,NULL,1531
1455556340,d1c82a2a2d562fcacf514bd21294fcd3,AcceptabilityJudgment,197,0,almandine-1,31,div%2Cp%2CContext: One of the informants uncovered the possibility of police corruption.%2Cp%2CTarget: The undercover policeman confessed that Zachary had evidently recorded himself talking about the secret plot.
1455556340,d1c82a2a2d562fcacf514bd21294fcd3,AcceptabilityJudgment,197,0,almandine-1,31,NULL,3,NULL,2469
1455556340,d1c82a2a2d562fcacf514bd21294fcd3,AcceptabilityJudgment,298,0,filler-110,102,div%2Cp%2CContext: In the middle of the severe storm%2C an emergency broadcast was sent out to warn about potential flooding.%2Cp%2CTarget: The weatherman worried that it wouldn't reach enough people in time.
1455556340,d1c82a2a2d562fcacf514bd21294fcd3,AcceptabilityJudgment,298,0,filler-110,102,NULL,7,NULL,3093
1455556340,d1c82a2a2d562fcacf514bd21294fcd3,AcceptabilityJudgment,303,0,filler-110,107,div%2Cp%2CContext: Every year tourists visit the magnificent fountain to appreciate its beauty.%2Cp%2CTarget: The custodian complained that it always gets clogged with the coins they throw in.
1455556340,d1c82a2a2d562fcacf514bd21294fcd3,AcceptabilityJudgment,303,0,filler-110,107,NULL,5,NULL,4097
1455556340,d1c82a2a2d562fcacf514bd21294fcd3,AcceptabilityJudgment,125,0,almandine-1,19,div%2Cp%2CContext: The budding actor came up in a recent conversation about signing deals with movie labels.%2Cp%2CTarget: The impatient manager insisted that Michael had irreversibly committed himself to four years with the film studio.
1455556340,d1c82a2a2d562fcacf514bd21294fcd3,AcceptabilityJudgment,125,0,almandine-1,19,NULL,5,NULL,3729
1455556340,d1c82a2a2d562fcacf514bd21294fcd3,AcceptabilityJudgment,288,0,filler-110,92,div%2Cp%2CContext: I believed that Santa was real until I was sixteen years old.%2Cp%2CTarget: The other girls at school couldn't believe that I could be so naive.
1455556340,d1c82a2a2d562fcacf514bd21294fcd3,AcceptabilityJudgment,288,0,filler-110,92,NULL,6,NULL,1469
1455556340,d1c82a2a2d562fcacf514bd21294fcd3,AcceptabilityJudgment,247,0,filler-100,51,div%2Cp%2CContext: The newest senator is not known for having very high ethical standards.%2Cp%2CTarget: The lobbyist knew who the senator%2C who voted for higher taxes%2C had bribed during the election.
1455556340,d1c82a2a2d562fcacf514bd21294fcd3,AcceptabilityJudgment,247,0,filler-100,51,NULL,5,NULL,4003
1455556340,d1c82a2a2d562fcacf514bd21294fcd3,AcceptabilityJudgment,204,0,almandine-2,32,div%2Cp%2CContext: A member of the city council was impressed with the police response to the dangerous confrontation.%2Cp%2CTarget: The popular policewoman reported that David had thoughtfully nominated himself for the prestigious community service award.
1455556340,d1c82a2a2d562fcacf514bd21294fcd3,AcceptabilityJudgment,204,0,almandine-2,32,NULL,6,NULL,31430
1455556340,d1c82a2a2d562fcacf514bd21294fcd3,AcceptabilityJudgment,290,0,filler-110,94,div%2Cp%2CContext: I think it's important to be willing to try new foods.%2Cp%2CTarget: The snobby chef was impressed that I would eat anything he put in front of me.
1455556340,d1c82a2a2d562fcacf514bd21294fcd3,AcceptabilityJudgment,290,0,filler-110,94,NULL,6,NULL,1089
1455556340,d1c82a2a2d562fcacf514bd21294fcd3,AcceptabilityJudgment,275,0,filler-110,79,div%2Cp%2CContext: A podcast which parodies TED talks has been gaining popularity lately.%2Cp%2CTarget: One prominent CEO has claimed that it obviously invalidates itself by failing to deal with the very real issues discussed by TED speakers.
1455556340,d1c82a2a2d562fcacf514bd21294fcd3,AcceptabilityJudgment,275,0,filler-110,79,NULL,5,NULL,6213
1455556340,d1c82a2a2d562fcacf514bd21294fcd3,AcceptabilityJudgment,31,0,almandine-3,3,div%2Cp%2CContext: During a closed door meeting about hiring policy%2C a private report called into question recent decisions.%2Cp%2CTarget: The industrious councilwoman insisted that it frequently characterized herself as exceptionally helpful and diligent.
1455556340,d1c82a2a2d562fcacf514bd21294fcd3,AcceptabilityJudgment,31,0,almandine-3,3,NULL,6,NULL,3263
1455556340,d1c82a2a2d562fcacf514bd21294fcd3,AcceptabilityJudgment,304,0,filler-110,108,div%2Cp%2CContext: The rose garden at the palace of Versailles is reportedly one of the most beautiful in the world.%2Cp%2CTarget: The wealthy heiress insisted that it would be the perfect spot for her wedding.
1455556340,d1c82a2a2d562fcacf514bd21294fcd3,AcceptabilityJudgment,304,0,filler-110,108,NULL,7,NULL,2892
1455556340,d1c82a2a2d562fcacf514bd21294fcd3,AcceptabilityJudgment,239,0,filler-100,43,div%2Cp%2CContext: The huge accident on the highway actually only injured one person.%2Cp%2CTarget: The cop wondered who the victim%2C who was recovering slowly%2C would blame for the accident.
1455556340,d1c82a2a2d562fcacf514bd21294fcd3,AcceptabilityJudgment,239,0,filler-100,43,NULL,6,NULL,4445
1455556340,d1c82a2a2d562fcacf514bd21294fcd3,AcceptabilityJudgment,103,0,almandine-3,15,div%2Cp%2CContext: A book on camping was brought in to give advice on wilderness survival.%2Cp%2CTarget: The proud girl scout boasted that it easily taught herself how to build a fire using only two sticks and a rock.
1455556340,d1c82a2a2d562fcacf514bd21294fcd3,AcceptabilityJudgment,103,0,almandine-3,15,NULL,5,NULL,4484
1455556340,d1c82a2a2d562fcacf514bd21294fcd3,AcceptabilityJudgment,299,0,filler-110,103,div%2Cp%2CContext: The office memo scared everyone who was worried about possible downsizing.%2Cp%2CTarget: The flighty secretary admitted that it might contain information about who would be fired.
1455556340,d1c82a2a2d562fcacf514bd21294fcd3,AcceptabilityJudgment,299,0,filler-110,103,NULL,5,NULL,2144
1455556340,d1c82a2a2d562fcacf514bd21294fcd3,AcceptabilityJudgment,273,0,filler-110,77,div%2Cp%2CContext: The small children were delighted that the storybook included many detailed illustrations.%2Cp%2CTarget: The nanny thought that it perhaps took itself a little too seriously%2C but didn't want to spoil the children's fun.
1455556340,d1c82a2a2d562fcacf514bd21294fcd3,AcceptabilityJudgment,273,0,filler-110,77,NULL,6,NULL,3524
1455556340,d1c82a2a2d562fcacf514bd21294fcd3,AcceptabilityJudgment,117,0,almandine-5,17,div%2Cp%2CContext: I was extremely complimentary of the recently released classical music album.%2Cp%2CTarget: The graceful harpist said that I shamelessly promoted herself as a famous musician in the making.
1455556340,d1c82a2a2d562fcacf514bd21294fcd3,AcceptabilityJudgment,117,0,almandine-5,17,NULL,5,NULL,3373
1455556340,d1c82a2a2d562fcacf514bd21294fcd3,AcceptabilityJudgment,294,0,filler-110,98,div%2Cp%2CContext: The museum pamphlet seemed to indicate that the modern art exhibit was closed.%2Cp%2CTarget: The security guard said that it had been confusing patrons for years.
1455556340,d1c82a2a2d562fcacf514bd21294fcd3,AcceptabilityJudgment,294,0,filler-110,98,NULL,5,NULL,2277
1455556340,d1c82a2a2d562fcacf514bd21294fcd3,AcceptabilityJudgment,277,0,filler-110,81,div%2Cp%2CContext: The insurance investigator reported that a stovetop burner started the massive fire.%2Cp%2CTarget: The homeowner swears that it ignited itself despite mounting evidence to the contrary.
1455556340,d1c82a2a2d562fcacf514bd21294fcd3,AcceptabilityJudgment,277,0,filler-110,81,NULL,6,NULL,8004
1455556340,d1c82a2a2d562fcacf514bd21294fcd3,AcceptabilityJudgment,60,0,almandine-2,8,div%2Cp%2CContext: To prank the school staff%2C a few students circulated a rumor about an undercover celebrity on campus.%2Cp%2CTarget: The gullible janitor admitted that Elizabeth somehow managed to trick herself into believing that the story was true.
1455556340,d1c82a2a2d562fcacf514bd21294fcd3,AcceptabilityJudgment,60,0,almandine-2,8,NULL,3,NULL,1379
1455556340,d1c82a2a2d562fcacf514bd21294fcd3,AcceptabilityJudgment,300,0,filler-110,104,div%2Cp%2CContext: During storytime%2C the kindergarten teacher told the children a fairytale about a witch and a princess.%2Cp%2CTarget: The worried mother complained that it might give her daughter nightmares.
1455556340,d1c82a2a2d562fcacf514bd21294fcd3,AcceptabilityJudgment,300,0,filler-110,104,NULL,5,NULL,1173
1455556340,d1c82a2a2d562fcacf514bd21294fcd3,AcceptabilityJudgment,296,0,filler-110,100,div%2Cp%2CContext: The catchy new song was repeatedly played on just about every radio station.%2Cp%2CTarget: The talkshow host complained that it got stuck in his head almost every day.
1455556340,d1c82a2a2d562fcacf514bd21294fcd3,AcceptabilityJudgment,296,0,filler-110,100,NULL,6,NULL,2403
1455556340,d1c82a2a2d562fcacf514bd21294fcd3,AcceptabilityJudgment,160,0,almandine-6,24,div%2Cp%2CContext: I brought up several issues with mismanagement at the large financial firm.%2Cp%2CTarget: The diligent secretary argued that I unintentionally cast himself in a negative and slanderous light at the board meeting.
1455556340,d1c82a2a2d562fcacf514bd21294fcd3,AcceptabilityJudgment,160,0,almandine-6,24,NULL,6,NULL,3779
1455556340,d1c82a2a2d562fcacf514bd21294fcd3,AcceptabilityJudgment,233,0,filler-100,37,div%2Cp%2CContext: A lot of really interesting customers came into the butcher shop today.%2Cp%2CTarget: The butcher asked who the customer who bought Italian sausage had invited to dinner tonight.
1455556340,d1c82a2a2d562fcacf514bd21294fcd3,AcceptabilityJudgment,233,0,filler-100,37,NULL,3,NULL,2714
1455556340,d1c82a2a2d562fcacf514bd21294fcd3,AcceptabilityJudgment,301,0,filler-110,105,div%2Cp%2CContext: The sappy movie made everyone in the theater cry by the time the credits rolled.%2Cp%2CTarget: The popcorn vendor said that it had inspired some couples to propose right in the middle of the lobby.
1455556340,d1c82a2a2d562fcacf514bd21294fcd3,AcceptabilityJudgment,301,0,filler-110,105,NULL,4,NULL,2985
1455556340,d1c82a2a2d562fcacf514bd21294fcd3,AcceptabilityJudgment,74,0,almandine-4,10,div%2Cp%2CContext: The patient's diary revealed that they had a crush on someone in the hospital.%2Cp%2CTarget: The flustered doctor complained that it embarrassingly called herself very attractive and made suggestive comments.
1455556340,d1c82a2a2d562fcacf514bd21294fcd3,AcceptabilityJudgment,74,0,almandine-4,10,NULL,3,NULL,7032
1455556340,d1c82a2a2d562fcacf514bd21294fcd3,AcceptabilityJudgment,289,0,filler-110,93,div%2Cp%2CContext: While on vacation in Egypt%2C I stumbled across an ancient tomb full of treasures.%2Cp%2CTarget: The frightened tourguide worried that I had been cursed by my accidental discovery.
1455556340,d1c82a2a2d562fcacf514bd21294fcd3,AcceptabilityJudgment,289,0,filler-110,93,NULL,4,NULL,1671
1455556340,d1c82a2a2d562fcacf514bd21294fcd3,AcceptabilityJudgment,291,0,filler-110,95,div%2Cp%2CContext: As a member of the Free Masons%2C I always laugh at conspiracy theories.%2Cp%2CTarget: The president of the club insists that I should be more concerned with public perception.
1455556340,d1c82a2a2d562fcacf514bd21294fcd3,AcceptabilityJudgment,291,0,filler-110,95,NULL,5,NULL,4546
1455556340,d1c82a2a2d562fcacf514bd21294fcd3,AcceptabilityJudgment,196,0,almandine-6,30,div%2Cp%2CContext: I weighed in with thoughts about corporate greed.%2Cp%2CTarget: The arrogant businesswoman said that I had apparently characterized himself as greedy but successful.
1455556340,d1c82a2a2d562fcacf514bd21294fcd3,AcceptabilityJudgment,196,0,almandine-6,30,NULL,4,NULL,4931
1455556340,d1c82a2a2d562fcacf514bd21294fcd3,AcceptabilityJudgment,251,0,filler-100,55,div%2Cp%2CContext: Only one doctor was assigned to every patient when the ER was overrun.%2Cp%2CTarget: The nurse asked who the doctor%2C who treated the crash victim%2C had examined very thoroughly.
1455556340,d1c82a2a2d562fcacf514bd21294fcd3,AcceptabilityJudgment,251,0,filler-100,55,NULL,4,NULL,1437
1455556340,d1c82a2a2d562fcacf514bd21294fcd3,AcceptabilityJudgment,283,0,filler-110,87,div%2Cp%2CContext: The community center offers several night classes that I have taken advantage of.%2Cp%2CTarget: The excitable calligraphy teacher insisted that I have the best penmanship he has ever seen.
1455556340,d1c82a2a2d562fcacf514bd21294fcd3,AcceptabilityJudgment,283,0,filler-110,87,NULL,6,NULL,1731
1455556340,d1c82a2a2d562fcacf514bd21294fcd3,AcceptabilityJudgment,225,0,almandine-5,35,div%2Cp%2CContext: I am known to have an uncompromising view on business ethics.%2Cp%2CTarget: The new executive revealed that I uncharitably blamed himself for all the compromises made on the way to the top.
1455556340,d1c82a2a2d562fcacf514bd21294fcd3,AcceptabilityJudgment,225,0,almandine-5,35,NULL,5,NULL,5845
1455556340,d1c82a2a2d562fcacf514bd21294fcd3,AcceptabilityJudgment,297,0,filler-110,101,div%2Cp%2CContext: The mugshot showed a very prominent tattoo on the suspect's back.%2Cp%2CTarget:  The policeman hoped that it would help them track him down for arrest.
1455556340,d1c82a2a2d562fcacf514bd21294fcd3,AcceptabilityJudgment,297,0,filler-110,101,NULL,5,NULL,3410
1455556340,d1c82a2a2d562fcacf514bd21294fcd3,AcceptabilityJudgment,295,0,filler-110,99,div%2Cp%2CContext: Thanks to a generous donation%2C the opera house was able to stay open for another season.%2Cp%2CTarget: The aged maestro worried that it had been struggling for years%2C and wouldn't last much longer.
1455556340,d1c82a2a2d562fcacf514bd21294fcd3,AcceptabilityJudgment,295,0,filler-110,99,NULL,5,NULL,1900
1455556340,d1c82a2a2d562fcacf514bd21294fcd3,AcceptabilityJudgment,45,0,almandine-5,5,div%2Cp%2CContext: In what became a major scandal%2C I revealed a celebrity's intimate secrets.%2Cp%2CTarget: The aspiring actress complained that I cruelly portrayed herself as petty and vindictive.
1455556340,d1c82a2a2d562fcacf514bd21294fcd3,AcceptabilityJudgment,45,0,almandine-5,5,NULL,6,NULL,2758
1455556340,d1c82a2a2d562fcacf514bd21294fcd3,AcceptabilityJudgment,280,0,filler-110,84,div%2Cp%2CContext: Japanese inventors recently announced that a new robot can perform complex feats of gymnastics.%2Cp%2CTarget: An impressed reporter looked on while it flipped itself off the edge of a balcony and onto a delicate balance beam below.
1455556340,d1c82a2a2d562fcacf514bd21294fcd3,AcceptabilityJudgment,280,0,filler-110,84,NULL,6,NULL,4081
1455556340,d1c82a2a2d562fcacf514bd21294fcd3,AcceptabilityJudgment,235,0,filler-100,39,div%2Cp%2CContext: After the big brawl%2C there was actually only one student who had gotten in trouble.%2Cp%2CTarget: The principal wanted to know who the student%2C who was expelled%2C had threatened with a knife.
1455556340,d1c82a2a2d562fcacf514bd21294fcd3,AcceptabilityJudgment,235,0,filler-100,39,NULL,6,NULL,4846
1455556340,d1c82a2a2d562fcacf514bd21294fcd3,AcceptabilityJudgment,110,0,almandine-4,16,div%2Cp%2CContext: An incriminating photo caused a bit of a stir in the library.%2Cp%2CTarget: The shy schoolboy confessed that it had thoroughly embarrassed herself in the cafeteria during lunch.
1455556340,d1c82a2a2d562fcacf514bd21294fcd3,AcceptabilityJudgment,110,0,almandine-4,16,NULL,1,NULL,7596
1455556340,d1c82a2a2d562fcacf514bd21294fcd3,AcceptabilityJudgment,241,0,filler-100,45,div%2Cp%2CContext: Some audience members were really being difficult during much of the show this evening.%2Cp%2CTarget: The singer didn't know who the audience member who laughed out loud was heckling during the show.
1455556340,d1c82a2a2d562fcacf514bd21294fcd3,AcceptabilityJudgment,241,0,filler-100,45,NULL,5,NULL,5638
1455556340,d1c82a2a2d562fcacf514bd21294fcd3,AcceptabilityJudgment,261,0,filler-110,65,div%2Cp%2CContext: Last night%2C I was kept up late writing college application essays.%2Cp%2CTarget: The guidance counsellor insists that I make myself more appealing to mid-range institutions.
1455556340,d1c82a2a2d562fcacf514bd21294fcd3,AcceptabilityJudgment,261,0,filler-110,65,NULL,5,NULL,1241
1455556340,d1c82a2a2d562fcacf514bd21294fcd3,AcceptabilityJudgment,175,0,almandine-3,27,div%2Cp%2CContext: The moving documentary brought to light the serious ethical implications of over-breeding pets.%2Cp%2CTarget: The legendary rock star said that it definitely inspired himself to write a new song about this social injustice.
1455556340,d1c82a2a2d562fcacf514bd21294fcd3,AcceptabilityJudgment,175,0,almandine-3,27,NULL,6,NULL,1531
1455556340,d1c82a2a2d562fcacf514bd21294fcd3,AcceptabilityJudgment,272,0,filler-110,76,div%2Cp%2CContext: An internal memo detailing corporate malfeasance was recently released to the public.%2Cp%2CTarget: The congresswoman said that it spoke for itself as evidence of corruption on Wall Street.
1455556340,d1c82a2a2d562fcacf514bd21294fcd3,AcceptabilityJudgment,272,0,filler-110,76,NULL,6,NULL,1613
1455556340,d1c82a2a2d562fcacf514bd21294fcd3,AcceptabilityJudgment,234,0,filler-100,38,div%2Cp%2CContext: At the hospital%2C there are many doctors who routinely work shifts in the ER.%2Cp%2CTarget: The administrator wondered if the doctor who manages the surgery wing had treated anyone in the ER.
1455556340,d1c82a2a2d562fcacf514bd21294fcd3,AcceptabilityJudgment,234,0,filler-100,38,NULL,4,NULL,1819
1455556340,d1c82a2a2d562fcacf514bd21294fcd3,AcceptabilityJudgment,211,0,almandine-3,33,div%2Cp%2CContext: The highly-publicized restaurant review reported glowingly on expanding food options in the area.%2Cp%2CTarget: The irritable waiter mentioned that it obviously complimented himself for the excellent and expensive meal.
1455556340,d1c82a2a2d562fcacf514bd21294fcd3,AcceptabilityJudgment,211,0,almandine-3,33,NULL,5,NULL,1930
1455556340,d1c82a2a2d562fcacf514bd21294fcd3,AcceptabilityJudgment,263,0,filler-110,67,div%2Cp%2CContext: Thanks to a crushing social anxiety%2C I haven't had any luck trying to find a date lately.%2Cp%2CTarget: One girl admitted that I hadn't groomed myself nearly well enough to be trying speed dating.
1455556340,d1c82a2a2d562fcacf514bd21294fcd3,AcceptabilityJudgment,263,0,filler-110,67,NULL,5,NULL,2236
1455556340,d1c82a2a2d562fcacf514bd21294fcd3,AcceptabilityJudgment,302,0,filler-110,106,div%2Cp%2CContext: Many literary critics were impressed that the beautiful poem had been written by an eleven year old.%2Cp%2CTarget: The prominent journal mentioned that it was a promising start to a young career.
1455556340,d1c82a2a2d562fcacf514bd21294fcd3,AcceptabilityJudgment,302,0,filler-110,106,NULL,5,NULL,1678
1455556340,d1c82a2a2d562fcacf514bd21294fcd3,AcceptabilityJudgment,124,0,almandine-6,18,div%2Cp%2CContext: I indicated that the new strategy wouldn't be very useful in a bid for reelection.%2Cp%2CTarget: The aging congressman argued that I completely underestimated herself during the long and grueling campaign.
1455556340,d1c82a2a2d562fcacf514bd21294fcd3,AcceptabilityJudgment,124,0,almandine-6,18,NULL,3,NULL,8905
1455556340,d1c82a2a2d562fcacf514bd21294fcd3,AcceptabilityJudgment,240,0,filler-100,44,div%2Cp%2CContext: The local TV station has a very well-known and respected reporter.%2Cp%2CTarget: I couldn't remember if the reporter%2C who does the morning news%2C had mentioned me in the big story.
1455556340,d1c82a2a2d562fcacf514bd21294fcd3,AcceptabilityJudgment,240,0,filler-100,44,NULL,5,NULL,2451
1455556340,d1c82a2a2d562fcacf514bd21294fcd3,AcceptabilityJudgment,270,0,filler-110,74,div%2Cp%2CContext: Most people are horrified that the tabloid printed those private pictures of celebrities.%2Cp%2CTarget: The respected reporter claims that it has disgraced itself as a media outlet.
1455556340,d1c82a2a2d562fcacf514bd21294fcd3,AcceptabilityJudgment,270,0,filler-110,74,NULL,6,NULL,1524
1455556340,d1c82a2a2d562fcacf514bd21294fcd3,AcceptabilityJudgment,67,0,almandine-3,9,div%2Cp%2CContext: During the hearings%2C some controversial evidence shed new light on the case.%2Cp%2CTarget: The innocent secretary said that it definitely exonerated herself in the eyes of the court.
1455556340,d1c82a2a2d562fcacf514bd21294fcd3,AcceptabilityJudgment,67,0,almandine-3,9,NULL,6,NULL,1667
1455556340,d1c82a2a2d562fcacf514bd21294fcd3,AcceptabilityJudgment,252,0,filler-100,56,div%2Cp%2CContext: One hacker worked on her own to launch an attack on the government.%2Cp%2CTarget: The reporter wanted to know if the hacker%2C who coded the software%2C had attacked the NSA with a virus.
1455556340,d1c82a2a2d562fcacf514bd21294fcd3,AcceptabilityJudgment,252,0,filler-100,56,NULL,5,NULL,3628
1455556340,d1c82a2a2d562fcacf514bd21294fcd3,AcceptabilityJudgment,259,0,filler-110,63,div%2Cp%2CContext: In a recent half marathon in San Diego%2C I finished dead last.%2Cp%2CTarget: The emergency nurse insisted I hadn't emasculated myself despite taking over eight hours to finish.
1455556340,d1c82a2a2d562fcacf514bd21294fcd3,AcceptabilityJudgment,259,0,filler-110,63,NULL,4,NULL,5101
1455556340,d1c82a2a2d562fcacf514bd21294fcd3,AcceptabilityJudgment,89,0,almandine-1,13,div%2Cp%2CContext: A few passersby gave evidence in the case of the hit-and-run.%2Cp%2CTarget: The conscientious nanny argued that Lauren clearly implicated herself in the accident that happened in the driveway.
1455556340,d1c82a2a2d562fcacf514bd21294fcd3,AcceptabilityJudgment,89,0,almandine-1,13,NULL,6,NULL,2020
1455556340,d1c82a2a2d562fcacf514bd21294fcd3,AcceptabilityJudgment,236,0,filler-100,40,div%2Cp%2CContext: The star violinist in the orchestra can be very touchy.%2Cp%2CTarget: The conductor asked if the violinist%2C who was very upset%2C had talked to anyone before coming in.
1455556340,d1c82a2a2d562fcacf514bd21294fcd3,AcceptabilityJudgment,236,0,filler-100,40,NULL,4,NULL,1981
1455556340,d1c82a2a2d562fcacf514bd21294fcd3,AcceptabilityJudgment,256,0,filler-100,60,div%2Cp%2CContext: One customer in the cafe seemed to spend all day there.%2Cp%2CTarget: The barista wondered if the customer%2C who ordered a decaf latte%2C was meeting someone in the cafe.
1455556340,d1c82a2a2d562fcacf514bd21294fcd3,AcceptabilityJudgment,256,0,filler-100,60,NULL,5,NULL,1717
1455556340,d1c82a2a2d562fcacf514bd21294fcd3,AcceptabilityJudgment,24,0,almandine-2,2,div%2Cp%2CContext: After the devastating earthquake%2C some rescue workers received a lot of media attention.%2Cp%2CTarget: The influential congressman said that Ashley definitely inspired herself to give back to the community more.
1455556340,d1c82a2a2d562fcacf514bd21294fcd3,AcceptabilityJudgment,24,0,almandine-2,2,NULL,5,NULL,2502
1455556340,d1c82a2a2d562fcacf514bd21294fcd3,AcceptabilityJudgment,267,0,filler-110,71,div%2Cp%2CContext: Unlike many people%2C I don't enjoy scary rides at amusement parks.%2Cp%2CTarget: The concession stand employee agreed that I should confine myself to eating popsicles all day instead.
1455556340,d1c82a2a2d562fcacf514bd21294fcd3,AcceptabilityJudgment,267,0,filler-110,71,NULL,6,NULL,8221
1455556340,d1c82a2a2d562fcacf514bd21294fcd3,AcceptabilityJudgment,238,0,filler-100,42,div%2Cp%2CContext: Some of the dancers really didn't seem to be focusing on practice this morning.%2Cp%2CTarget: The choreographer didn't know if the dancer who danced clumsily had run into anyone during practice.
1455556340,d1c82a2a2d562fcacf514bd21294fcd3,AcceptabilityJudgment,238,0,filler-100,42,NULL,6,NULL,1012
1455556340,d1c82a2a2d562fcacf514bd21294fcd3,AcceptabilityJudgment,52,0,almandine-6,6,div%2Cp%2CContext: Several newspapers reported that I recommended the financier for the job.%2Cp%2CTarget: The skilled businessman mentioned that I misleadingly described herself as hardworking and industrious during the interview.
1455556340,d1c82a2a2d562fcacf514bd21294fcd3,AcceptabilityJudgment,52,0,almandine-6,6,NULL,4,NULL,1438
1455556340,d1c82a2a2d562fcacf514bd21294fcd3,AcceptabilityJudgment,253,0,filler-100,57,div%2Cp%2CContext: The principal was worried about a number of students in the class.%2Cp%2CTarget: The teacher asked who the student who was failing math could talk to for some help.
1455556340,d1c82a2a2d562fcacf514bd21294fcd3,AcceptabilityJudgment,253,0,filler-100,57,NULL,5,NULL,8620
1455556340,d1c82a2a2d562fcacf514bd21294fcd3,AcceptabilityJudgment,274,0,filler-110,78,div%2Cp%2CContext: A new talkshow is slated to make its debut on TV this fall.%2Cp%2CTarget: The radiohost complained that it has been shamelessly promoting itself on every channel for the last year.
1455556340,d1c82a2a2d562fcacf514bd21294fcd3,AcceptabilityJudgment,274,0,filler-110,78,NULL,5,NULL,4507
1455556340,d1c82a2a2d562fcacf514bd21294fcd3,AcceptabilityJudgment,88,0,almandine-6,12,div%2Cp%2CContext: I seemed sincerely repentent for the questionable behavior.%2Cp%2CTarget: The elderly man insisted that I would finally redeem herself in the eyes of her family.
1455556340,d1c82a2a2d562fcacf514bd21294fcd3,AcceptabilityJudgment,88,0,almandine-6,12,NULL,6,NULL,1172
1455556340,d1c82a2a2d562fcacf514bd21294fcd3,AcceptabilityJudgment,293,0,filler-110,97,div%2Cp%2CContext: In a dramatic turnaround%2C the soap opera brought in significantly more viewers than expected.%2Cp%2CTarget: The shocked analyst said that it would probably continue to draw viewers for another five seasons.
1455556340,d1c82a2a2d562fcacf514bd21294fcd3,AcceptabilityJudgment,293,0,filler-110,97,NULL,4,NULL,1084
1455556340,d1c82a2a2d562fcacf514bd21294fcd3,AcceptabilityJudgment,279,0,filler-110,83,div%2Cp%2CContext: While still learning to climb%2C the baby orangutang fell from a dangerously high branch.%2Cp%2CTarget: The field biologist was very happy that it managed to catch itself on the way down.
1455556340,d1c82a2a2d562fcacf514bd21294fcd3,AcceptabilityJudgment,279,0,filler-110,83,NULL,6,NULL,2391
1455556340,d1c82a2a2d562fcacf514bd21294fcd3,AcceptabilityJudgment,17,0,almandine-1,1,div%2Cp%2CContext: In a recent media frenzy%2C many people said some unflattering things about Hollywood icons.%2Cp%2CTarget: The famous actress said that Jessica unfairly depicted herself as unfeeling and unaffected by public opinion.
1455556340,d1c82a2a2d562fcacf514bd21294fcd3,AcceptabilityJudgment,17,0,almandine-1,1,NULL,5,NULL,1784
1455556340,d1c82a2a2d562fcacf514bd21294fcd3,AcceptabilityJudgment,243,0,filler-100,47,div%2Cp%2CContext: One of the lawyers in the courtroom was called into the judge's personal chambers.%2Cp%2CTarget: The judge asked who the lawyer%2C who represented the defendant%2C was working with on the case.
1455556340,d1c82a2a2d562fcacf514bd21294fcd3,AcceptabilityJudgment,243,0,filler-100,47,NULL,3,NULL,2324
# Columns below this comment are as follows:
# 1. Time results were received.
# 2. MD5 hash of participant's IP address.
# 3. Controller name.
# 4. Item number.
# 5. Element number.
# 6. Type.
# 7. Group.
# 8. Field name.
# 9. Field value.
1455556340,d1c82a2a2d562fcacf514bd21294fcd3,Form,5,0,exit,NULL,comments,
1455556340,d1c82a2a2d562fcacf514bd21294fcd3,Form,5,0,exit,NULL,priorExpt,yes
1455556340,d1c82a2a2d562fcacf514bd21294fcd3,Form,5,0,exit,NULL,priorRefl,yes
1455556340,d1c82a2a2d562fcacf514bd21294fcd3,Form,5,0,exit,NULL,logLang,no
1455556340,d1c82a2a2d562fcacf514bd21294fcd3,Form,5,0,exit,NULL,logContrast,yes2
1455556340,d1c82a2a2d562fcacf514bd21294fcd3,Form,6,0,exit,NULL,randomfield,H6VWppC6
1455556340,d1c82a2a2d562fcacf514bd21294fcd3,Form,6,0,exit,NULL,worker_id,ALLP45O3BDWYM
1455556340,d1c82a2a2d562fcacf514bd21294fcd3,Form,6,0,exit,NULL,identifier,H6VWppC6
#
# Results on Monday February 15 2016 17:14:38 UTC.
# USER AGENT: Mozilla/5.0 (Windows NT 6.3; WOW64) AppleWebKit/537.36 (KHTML, like Gecko) Chrome/47.0.2526.106 Safari/537.36
# Design number was non-random = 3
#
# Columns below this comment are as follows:
# 1. Time results were received.
# 2. MD5 hash of participant's IP address.
# 3. Controller name.
# 4. Item number.
# 5. Element number.
# 6. Type.
# 7. Group.
# 8. Field name.
# 9. Field value.
1455556478,e8532579039cc5864c571bc32527a773,Form,2,0,consent,NULL,workerID,
1455556478,e8532579039cc5864c571bc32527a773,Form,3,0,consent,NULL,consent,yes
# The lines below this comment are in groups of 2.
# The formats of the lines in each of these groups are as follows:
#
# Line 1:
#     Col. 1: Time results were received.
#     Col. 2: MD5 hash of participant's IP address.
#     Col. 3: Controller name.
#     Col. 4: Item number.
#     Col. 5: Element number.
#     Col. 6: Type.
#     Col. 7: Group.
#     Col. 8: Sentence (or sentence MD5).
# Line 2:
#     Col. 1: Time results were received.
#     Col. 2: MD5 hash of participant's IP address.
#     Col. 3: Controller name.
#     Col. 4: Item number.
#     Col. 5: Element number.
#     Col. 6: Type.
#     Col. 7: Group.
#     Col. 8: Question (NULL if none).
#     Col. 9: Answer.
#     Col. 10: Whether or not answer was correct (NULL if N/A).
#     Col. 11: Time taken to answer.
1455556478,e8532579039cc5864c571bc32527a773,AcceptabilityJudgment,12,0,practice,NULL,div%2Cp%2CContext: It was Christmas time%2C and everyone was really excited.%2Cp%2CTarget: The kids decorated the ornaments onto the tree.
1455556478,e8532579039cc5864c571bc32527a773,AcceptabilityJudgment,12,0,practice,NULL,NULL,3,NULL,5161
1455556478,e8532579039cc5864c571bc32527a773,AcceptabilityJudgment,13,0,practice,NULL,div%2Cp%2CContext: John asked me yesterday who all was going to be coming over.%2Cp%2CTarget: I know that Bill and Mary were planning on attending the party last night.
1455556478,e8532579039cc5864c571bc32527a773,AcceptabilityJudgment,13,0,practice,NULL,NULL,4,NULL,14970
1455556478,e8532579039cc5864c571bc32527a773,AcceptabilityJudgment,14,0,practice,NULL,div%2Cp%2CContext: Mary is usually fairly skeptical of public officials.%2Cp%2CTarget: Which politician did she believe the scientist and?
1455556478,e8532579039cc5864c571bc32527a773,AcceptabilityJudgment,14,0,practice,NULL,NULL,2,NULL,3573
1455556478,e8532579039cc5864c571bc32527a773,AcceptabilityJudgment,15,0,practice,NULL,div%2Cp%2CContext: Unfortunately%2C Susy was a little bit out of the social loop.%2Cp%2CTarget: John doubted that she knew anything of what went on after work.
1455556478,e8532579039cc5864c571bc32527a773,AcceptabilityJudgment,15,0,practice,NULL,NULL,5,NULL,5344
1455556478,e8532579039cc5864c571bc32527a773,AcceptabilityJudgment,256,0,filler-100,60,div%2Cp%2CContext: One customer in the cafe seemed to spend all day there.%2Cp%2CTarget: The barista wondered if the customer%2C who ordered a decaf latte%2C was meeting someone in the cafe.
1455556478,e8532579039cc5864c571bc32527a773,AcceptabilityJudgment,256,0,filler-100,60,NULL,5,NULL,8365
1455556478,e8532579039cc5864c571bc32527a773,AcceptabilityJudgment,106,0,almandine-6,15,div%2Cp%2CContext: I was brought in to give advice on wilderness survival.%2Cp%2CTarget: The proud boy scout boasted that I easily taught herself how to build a fire using only two sticks and a rock.
1455556478,e8532579039cc5864c571bc32527a773,AcceptabilityJudgment,106,0,almandine-6,15,NULL,2,NULL,8527
1455556478,e8532579039cc5864c571bc32527a773,AcceptabilityJudgment,289,0,filler-110,93,div%2Cp%2CContext: While on vacation in Egypt%2C I stumbled across an ancient tomb full of treasures.%2Cp%2CTarget: The frightened tourguide worried that I had been cursed by my accidental discovery.
1455556478,e8532579039cc5864c571bc32527a773,AcceptabilityJudgment,289,0,filler-110,93,NULL,5,NULL,5955
1455556478,e8532579039cc5864c571bc32527a773,AcceptabilityJudgment,300,0,filler-110,104,div%2Cp%2CContext: During storytime%2C the kindergarten teacher told the children a fairytale about a witch and a princess.%2Cp%2CTarget: The worried mother complained that it might give her daughter nightmares.
1455556478,e8532579039cc5864c571bc32527a773,AcceptabilityJudgment,300,0,filler-110,104,NULL,6,NULL,4491
1455556478,e8532579039cc5864c571bc32527a773,AcceptabilityJudgment,78,0,almandine-2,11,div%2Cp%2CContext: One of the chefs suggested that the kitchen should hire someone new.%2Cp%2CTarget: The scruffy waiter mentioned that Megan wholeheartedly recommended herself for the new position.
1455556478,e8532579039cc5864c571bc32527a773,AcceptabilityJudgment,78,0,almandine-2,11,NULL,4,NULL,9955
1455556478,e8532579039cc5864c571bc32527a773,AcceptabilityJudgment,287,0,filler-110,91,div%2Cp%2CContext: At a casual cocktail party%2C I was forced to admit that I'm terrible at charades.%2Cp%2CTarget: The gracious hostess insisted that I must be better than I was claiming.
1455556478,e8532579039cc5864c571bc32527a773,AcceptabilityJudgment,287,0,filler-110,91,NULL,5,NULL,17095
1455556478,e8532579039cc5864c571bc32527a773,AcceptabilityJudgment,237,0,filler-100,41,div%2Cp%2CContext: This town has many very well-qualified contractors that you could hire.%2Cp%2CTarget: The homeowner asked who the contractor who fixed the roof would hire for the next job.
1455556478,e8532579039cc5864c571bc32527a773,AcceptabilityJudgment,237,0,filler-100,41,NULL,6,NULL,5189
1455556478,e8532579039cc5864c571bc32527a773,AcceptabilityJudgment,207,0,almandine-5,32,div%2Cp%2CContext: I was impressed with the police response to the dangerous confrontation.%2Cp%2CTarget: The popular policeman reported that I had thoughtfully nominated himself for the prestigious community service award.
1455556478,e8532579039cc5864c571bc32527a773,AcceptabilityJudgment,207,0,almandine-5,32,NULL,4,NULL,3835
1455556478,e8532579039cc5864c571bc32527a773,AcceptabilityJudgment,274,0,filler-110,78,div%2Cp%2CContext: A new talkshow is slated to make its debut on TV this fall.%2Cp%2CTarget: The radiohost complained that it has been shamelessly promoting itself on every channel for the last year.
1455556478,e8532579039cc5864c571bc32527a773,AcceptabilityJudgment,274,0,filler-110,78,NULL,3,NULL,4229
1455556478,e8532579039cc5864c571bc32527a773,AcceptabilityJudgment,251,0,filler-100,55,div%2Cp%2CContext: Only one doctor was assigned to every patient when the ER was overrun.%2Cp%2CTarget: The nurse asked who the doctor%2C who treated the crash victim%2C had examined very thoroughly.
1455556478,e8532579039cc5864c571bc32527a773,AcceptabilityJudgment,251,0,filler-100,55,NULL,5,NULL,4075
1455556478,e8532579039cc5864c571bc32527a773,AcceptabilityJudgment,107,0,almandine-1,16,div%2Cp%2CContext: One of the interns caused a bit of a stir in the library.%2Cp%2CTarget: The shy schoolgirl confessed that Victoria had thoroughly embarrassed herself in the cafeteria during lunch.
1455556478,e8532579039cc5864c571bc32527a773,AcceptabilityJudgment,107,0,almandine-1,16,NULL,6,NULL,5267
1455556478,e8532579039cc5864c571bc32527a773,AcceptabilityJudgment,278,0,filler-110,82,div%2Cp%2CContext: Before the long car trip%2C the dog walker tried to get the puppy to play a lot in the yard.%2Cp%2CTarget: The dog's owner hoped it would tire itself out before they had to drive across the country.
1455556478,e8532579039cc5864c571bc32527a773,AcceptabilityJudgment,278,0,filler-110,82,NULL,5,NULL,2502
1455556478,e8532579039cc5864c571bc32527a773,AcceptabilityJudgment,275,0,filler-110,79,div%2Cp%2CContext: A podcast which parodies TED talks has been gaining popularity lately.%2Cp%2CTarget: One prominent CEO has claimed that it obviously invalidates itself by failing to deal with the very real issues discussed by TED speakers.
1455556478,e8532579039cc5864c571bc32527a773,AcceptabilityJudgment,275,0,filler-110,79,NULL,5,NULL,10392
1455556478,e8532579039cc5864c571bc32527a773,AcceptabilityJudgment,157,0,almandine-3,24,div%2Cp%2CContext: The new performance report brought up several issues with mismanagement at the large financial firm.%2Cp%2CTarget: The wealthy banker argued that it unintentionally cast himself in a negative and slanderous light at the board meeting.
1455556478,e8532579039cc5864c571bc32527a773,AcceptabilityJudgment,157,0,almandine-3,24,NULL,4,NULL,4902
1455556478,e8532579039cc5864c571bc32527a773,AcceptabilityJudgment,304,0,filler-110,108,div%2Cp%2CContext: The rose garden at the palace of Versailles is reportedly one of the most beautiful in the world.%2Cp%2CTarget: The wealthy heiress insisted that it would be the perfect spot for her wedding.
1455556478,e8532579039cc5864c571bc32527a773,AcceptabilityJudgment,304,0,filler-110,108,NULL,6,NULL,2639
1455556478,e8532579039cc5864c571bc32527a773,AcceptabilityJudgment,262,0,filler-110,66,div%2Cp%2CContext: In a job interview for a conservative law firm%2C I made the mistake of talking about my ties to the communist party.%2Cp%2CTarget: The officious interviewer disliked that I aligned myself so closely with such left-leaning policies.
1455556478,e8532579039cc5864c571bc32527a773,AcceptabilityJudgment,262,0,filler-110,66,NULL,5,NULL,4503
1455556478,e8532579039cc5864c571bc32527a773,AcceptabilityJudgment,114,0,almandine-2,17,div%2Cp%2CContext: A publicist was extremely complimentary of the recently released classical music album.%2Cp%2CTarget: The somber minister said that Amber shamelessly promoted herself as a famous musician in the making.
1455556478,e8532579039cc5864c571bc32527a773,AcceptabilityJudgment,114,0,almandine-2,17,NULL,5,NULL,8287
1455556478,e8532579039cc5864c571bc32527a773,AcceptabilityJudgment,285,0,filler-110,89,div%2Cp%2CContext: Unlike many applicants for the job%2C I had carefully proofread my application before submitting it.%2Cp%2CTarget: The bossy secretary mentioned that I was the only person to properly use a semicolon.
1455556478,e8532579039cc5864c571bc32527a773,AcceptabilityJudgment,285,0,filler-110,89,NULL,6,NULL,2631
1455556478,e8532579039cc5864c571bc32527a773,AcceptabilityJudgment,254,0,filler-100,58,div%2Cp%2CContext: A couple of chatty new neighbors moved into the neighborhood recently.%2Cp%2CTarget: Billy forgot if the neighbor who moved from Indiana was dating Susan this time last year.
1455556478,e8532579039cc5864c571bc32527a773,AcceptabilityJudgment,254,0,filler-100,58,NULL,4,NULL,5877
1455556478,e8532579039cc5864c571bc32527a773,AcceptabilityJudgment,179,0,almandine-1,28,div%2Cp%2CContext: One member of the jury was very persuasive in deciding the outcome of the trial.%2Cp%2CTarget: The brilliant detective reported that Andrew fully convinced himself that the testimony was false and unreliable.
1455556478,e8532579039cc5864c571bc32527a773,AcceptabilityJudgment,179,0,almandine-1,28,NULL,6,NULL,2429
1455556478,e8532579039cc5864c571bc32527a773,AcceptabilityJudgment,298,0,filler-110,102,div%2Cp%2CContext: In the middle of the severe storm%2C an emergency broadcast was sent out to warn about potential flooding.%2Cp%2CTarget: The weatherman worried that it wouldn't reach enough people in time.
1455556478,e8532579039cc5864c571bc32527a773,AcceptabilityJudgment,298,0,filler-110,102,NULL,6,NULL,3362
1455556478,e8532579039cc5864c571bc32527a773,AcceptabilityJudgment,260,0,filler-110,64,div%2Cp%2CContext: At a concert last night%2C I was struggling to find a friend who had become separated from the group.%2Cp%2CTarget: The security guard noted that I had shouted myself hoarse and offered to help.
1455556478,e8532579039cc5864c571bc32527a773,AcceptabilityJudgment,260,0,filler-110,64,NULL,7,NULL,4042
1455556478,e8532579039cc5864c571bc32527a773,AcceptabilityJudgment,99,0,almandine-5,14,div%2Cp%2CContext: I caught some college students heading out for the evening.%2Cp%2CTarget: The sorority girl mentioned that I sneakily photographed herself on the way to the party.
1455556478,e8532579039cc5864c571bc32527a773,AcceptabilityJudgment,99,0,almandine-5,14,NULL,2,NULL,5082
1455556478,e8532579039cc5864c571bc32527a773,AcceptabilityJudgment,263,0,filler-110,67,div%2Cp%2CContext: Thanks to a crushing social anxiety%2C I haven't had any luck trying to find a date lately.%2Cp%2CTarget: One girl admitted that I hadn't groomed myself nearly well enough to be trying speed dating.
1455556478,e8532579039cc5864c571bc32527a773,AcceptabilityJudgment,263,0,filler-110,67,NULL,4,NULL,5414
1455556478,e8532579039cc5864c571bc32527a773,AcceptabilityJudgment,241,0,filler-100,45,div%2Cp%2CContext: Some audience members were really being difficult during much of the show this evening.%2Cp%2CTarget: The singer didn't know who the audience member who laughed out loud was heckling during the show.
1455556478,e8532579039cc5864c571bc32527a773,AcceptabilityJudgment,241,0,filler-100,45,NULL,5,NULL,6366
1455556478,e8532579039cc5864c571bc32527a773,AcceptabilityJudgment,164,0,almandine-4,25,div%2Cp%2CContext: A high-profile restaurant review was featured in a Bon Apetit expose on flourishing counterculture movements in Brooklyn.%2Cp%2CTarget: The pretty florist boasted that it highly praised himself for a job skillfully and tastefully done.
1455556478,e8532579039cc5864c571bc32527a773,AcceptabilityJudgment,164,0,almandine-4,25,NULL,3,NULL,4000
1455556478,e8532579039cc5864c571bc32527a773,AcceptabilityJudgment,252,0,filler-100,56,div%2Cp%2CContext: One hacker worked on her own to launch an attack on the government.%2Cp%2CTarget: The reporter wanted to know if the hacker%2C who coded the software%2C had attacked the NSA with a virus.
1455556478,e8532579039cc5864c571bc32527a773,AcceptabilityJudgment,252,0,filler-100,56,NULL,5,NULL,5330
1455556478,e8532579039cc5864c571bc32527a773,AcceptabilityJudgment,286,0,filler-110,90,div%2Cp%2CContext: At a baseball game last weekend%2C I caught a fly ball hit into the stands.%2Cp%2CTarget: The concession salesman was impressed that I hadn't hurt my hand in the attempt.
1455556478,e8532579039cc5864c571bc32527a773,AcceptabilityJudgment,286,0,filler-110,90,NULL,6,NULL,2559
1455556478,e8532579039cc5864c571bc32527a773,AcceptabilityJudgment,128,0,almandine-4,19,div%2Cp%2CContext: The highly publicized contract came up in a recent conversation about signing deals with movie labels.%2Cp%2CTarget: The high-heeled publicist insisted that it had irreversibly committed himself to four years with the film studio.
1455556478,e8532579039cc5864c571bc32527a773,AcceptabilityJudgment,128,0,almandine-4,19,NULL,2,NULL,3822
1455556478,e8532579039cc5864c571bc32527a773,AcceptabilityJudgment,279,0,filler-110,83,div%2Cp%2CContext: While still learning to climb%2C the baby orangutang fell from a dangerously high branch.%2Cp%2CTarget: The field biologist was very happy that it managed to catch itself on the way down.
1455556478,e8532579039cc5864c571bc32527a773,AcceptabilityJudgment,279,0,filler-110,83,NULL,4,NULL,6193
1455556478,e8532579039cc5864c571bc32527a773,AcceptabilityJudgment,276,0,filler-110,80,div%2Cp%2CContext: A fake news program ruffled a lot of feathers with a recent skit about famous politicians.%2Cp%2CTarget: The political pundit was outraged that it billed itself as a legitimate news source.
1455556478,e8532579039cc5864c571bc32527a773,AcceptabilityJudgment,276,0,filler-110,80,NULL,6,NULL,5345
1455556478,e8532579039cc5864c571bc32527a773,AcceptabilityJudgment,178,0,almandine-6,27,div%2Cp%2CContext: I brought to light the serious ethical implications of over-breeding pets.%2Cp%2CTarget: The legendary pop diva said that I definitely inspired himself to write a new song about this social injustice.
1455556478,e8532579039cc5864c571bc32527a773,AcceptabilityJudgment,178,0,almandine-6,27,NULL,2,NULL,3852
1455556478,e8532579039cc5864c571bc32527a773,AcceptabilityJudgment,297,0,filler-110,101,div%2Cp%2CContext: The mugshot showed a very prominent tattoo on the suspect's back.%2Cp%2CTarget:  The policeman hoped that it would help them track him down for arrest.
1455556478,e8532579039cc5864c571bc32527a773,AcceptabilityJudgment,297,0,filler-110,101,NULL,5,NULL,6540
1455556478,e8532579039cc5864c571bc32527a773,AcceptabilityJudgment,247,0,filler-100,51,div%2Cp%2CContext: The newest senator is not known for having very high ethical standards.%2Cp%2CTarget: The lobbyist knew who the senator%2C who voted for higher taxes%2C had bribed during the election.
1455556478,e8532579039cc5864c571bc32527a773,AcceptabilityJudgment,247,0,filler-100,51,NULL,6,NULL,3570
1455556478,e8532579039cc5864c571bc32527a773,AcceptabilityJudgment,171,0,almandine-5,26,div%2Cp%2CContext: I was called into question during the trial.%2Cp%2CTarget: The security guard admitted that I apparently identified himself as a potential suspect in an ongoing investigation.
1455556478,e8532579039cc5864c571bc32527a773,AcceptabilityJudgment,171,0,almandine-5,26,NULL,5,NULL,6119
1455556478,e8532579039cc5864c571bc32527a773,AcceptabilityJudgment,295,0,filler-110,99,div%2Cp%2CContext: Thanks to a generous donation%2C the opera house was able to stay open for another season.%2Cp%2CTarget: The aged maestro worried that it had been struggling for years%2C and wouldn't last much longer.
1455556478,e8532579039cc5864c571bc32527a773,AcceptabilityJudgment,295,0,filler-110,99,NULL,6,NULL,3382
1455556478,e8532579039cc5864c571bc32527a773,AcceptabilityJudgment,243,0,filler-100,47,div%2Cp%2CContext: One of the lawyers in the courtroom was called into the judge's personal chambers.%2Cp%2CTarget: The judge asked who the lawyer%2C who represented the defendant%2C was working with on the case.
1455556478,e8532579039cc5864c571bc32527a773,AcceptabilityJudgment,243,0,filler-100,47,NULL,6,NULL,4254
1455556478,e8532579039cc5864c571bc32527a773,AcceptabilityJudgment,27,0,almandine-5,2,div%2Cp%2CContext: After the devastating earthquake%2C I received a lot of media attention.%2Cp%2CTarget: The influential congresswoman said that I definitely inspired herself to give back to the community more.
1455556478,e8532579039cc5864c571bc32527a773,AcceptabilityJudgment,27,0,almandine-5,2,NULL,2,NULL,2688
1455556478,e8532579039cc5864c571bc32527a773,AcceptabilityJudgment,282,0,filler-110,86,div%2Cp%2CContext: Last week the bookstore I frequently visit was having a huge sale on new-release hardcovers.%2Cp%2CTarget: The cashier mentioned that I bought more books than anyone else.
1455556478,e8532579039cc5864c571bc32527a773,AcceptabilityJudgment,282,0,filler-110,86,NULL,7,NULL,3108
1455556478,e8532579039cc5864c571bc32527a773,AcceptabilityJudgment,293,0,filler-110,97,div%2Cp%2CContext: In a dramatic turnaround%2C the soap opera brought in significantly more viewers than expected.%2Cp%2CTarget: The shocked analyst said that it would probably continue to draw viewers for another five seasons.
1455556478,e8532579039cc5864c571bc32527a773,AcceptabilityJudgment,293,0,filler-110,97,NULL,5,NULL,4200
1455556478,e8532579039cc5864c571bc32527a773,AcceptabilityJudgment,35,0,almandine-1,4,div%2Cp%2CContext: In a highly contentious criminal case%2C some people were frequently misquoted.%2Cp%2CTarget: The female witness said that Samantha completely misrepresented herself in the trial but the jury didn't buy it.
1455556478,e8532579039cc5864c571bc32527a773,AcceptabilityJudgment,35,0,almandine-1,4,NULL,4,NULL,4649
1455556478,e8532579039cc5864c571bc32527a773,AcceptabilityJudgment,290,0,filler-110,94,div%2Cp%2CContext: I think it's important to be willing to try new foods.%2Cp%2CTarget: The snobby chef was impressed that I would eat anything he put in front of me.
1455556478,e8532579039cc5864c571bc32527a773,AcceptabilityJudgment,290,0,filler-110,94,NULL,6,NULL,2856
1455556478,e8532579039cc5864c571bc32527a773,AcceptabilityJudgment,273,0,filler-110,77,div%2Cp%2CContext: The small children were delighted that the storybook included many detailed illustrations.%2Cp%2CTarget: The nanny thought that it perhaps took itself a little too seriously%2C but didn't want to spoil the children's fun.
1455556478,e8532579039cc5864c571bc32527a773,AcceptabilityJudgment,273,0,filler-110,77,NULL,5,NULL,6325
1455556478,e8532579039cc5864c571bc32527a773,AcceptabilityJudgment,229,0,almandine-3,36,div%2Cp%2CContext: A negative performance review came up in a conversation about promotion possibilities in the office.%2Cp%2CTarget: The exasperated manager declared that it unfairly denied himself a chance at advancing in the company.
1455556478,e8532579039cc5864c571bc32527a773,AcceptabilityJudgment,229,0,almandine-3,36,NULL,5,NULL,5919
1455556478,e8532579039cc5864c571bc32527a773,AcceptabilityJudgment,250,0,filler-100,54,div%2Cp%2CContext: The local teenagers are known for being very cruel.%2Cp%2CTarget: Alex wondered if the teenager who was a clever prankster would target John for his next prank.
1455556478,e8532579039cc5864c571bc32527a773,AcceptabilityJudgment,250,0,filler-100,54,NULL,6,NULL,4844
1455556478,e8532579039cc5864c571bc32527a773,AcceptabilityJudgment,239,0,filler-100,43,div%2Cp%2CContext: The huge accident on the highway actually only injured one person.%2Cp%2CTarget: The cop wondered who the victim%2C who was recovering slowly%2C would blame for the accident.
1455556478,e8532579039cc5864c571bc32527a773,AcceptabilityJudgment,239,0,filler-100,43,NULL,6,NULL,3932
1455556478,e8532579039cc5864c571bc32527a773,AcceptabilityJudgment,142,0,almandine-6,21,div%2Cp%2CContext: I was concerned with the accuracy of some of the statements made to the public.%2Cp%2CTarget: The trustworthy policewoman reported that I roundly criticized himself for the error during the trial.
1455556478,e8532579039cc5864c571bc32527a773,AcceptabilityJudgment,142,0,almandine-6,21,NULL,2,NULL,3211
1455556478,e8532579039cc5864c571bc32527a773,AcceptabilityJudgment,281,0,filler-110,85,div%2Cp%2CContext: I went skating yesterday and fell on the ice.%2Cp%2CTarget: The ER doctor said that I was lucky to have not broken my leg.
1455556478,e8532579039cc5864c571bc32527a773,AcceptabilityJudgment,281,0,filler-110,85,NULL,5,NULL,2298
1455556478,e8532579039cc5864c571bc32527a773,AcceptabilityJudgment,234,0,filler-100,38,div%2Cp%2CContext: At the hospital%2C there are many doctors who routinely work shifts in the ER.%2Cp%2CTarget: The administrator wondered if the doctor who manages the surgery wing had treated anyone in the ER.
1455556478,e8532579039cc5864c571bc32527a773,AcceptabilityJudgment,234,0,filler-100,38,NULL,5,NULL,8331
1455556478,e8532579039cc5864c571bc32527a773,AcceptabilityJudgment,214,0,almandine-6,33,div%2Cp%2CContext: I reported glowingly on expanding food options in the area.%2Cp%2CTarget: The irritable waitress mentioned that I obviously complimented himself for the excellent and expensive meal.
1455556478,e8532579039cc5864c571bc32527a773,AcceptabilityJudgment,214,0,almandine-6,33,NULL,3,NULL,12050
1455556478,e8532579039cc5864c571bc32527a773,AcceptabilityJudgment,266,0,filler-110,70,div%2Cp%2CContext: While on a fishing trip off the coast of Alaska%2C I caught an enormous salmon.%2Cp%2CTarget: The fishing guide asked if I wanted to ship myself the frozen fish to enjoy at home.
1455556478,e8532579039cc5864c571bc32527a773,AcceptabilityJudgment,266,0,filler-110,70,NULL,5,NULL,4415
1455556478,e8532579039cc5864c571bc32527a773,AcceptabilityJudgment,242,0,filler-100,46,div%2Cp%2CContext: Some of the businessmen were very vocal about their politics.%2Cp%2CTarget: The oilman wondered if the businessman who hated fossil fuels had fired someone from his company.
1455556478,e8532579039cc5864c571bc32527a773,AcceptabilityJudgment,242,0,filler-100,46,NULL,5,NULL,3712
1455556478,e8532579039cc5864c571bc32527a773,AcceptabilityJudgment,56,0,almandine-4,7,div%2Cp%2CContext: A recent interview showed a glamour magazine making disparaging remarks about fashion models.%2Cp%2CTarget: The handsome actor boasted that it consistently underestimated herself when it came to giving public speeches.
1455556478,e8532579039cc5864c571bc32527a773,AcceptabilityJudgment,56,0,almandine-4,7,NULL,3,NULL,4889
1455556478,e8532579039cc5864c571bc32527a773,AcceptabilityJudgment,235,0,filler-100,39,div%2Cp%2CContext: After the big brawl%2C there was actually only one student who had gotten in trouble.%2Cp%2CTarget: The principal wanted to know who the student%2C who was expelled%2C had threatened with a knife.
1455556478,e8532579039cc5864c571bc32527a773,AcceptabilityJudgment,235,0,filler-100,39,NULL,5,NULL,3106
1455556478,e8532579039cc5864c571bc32527a773,AcceptabilityJudgment,299,0,filler-110,103,div%2Cp%2CContext: The office memo scared everyone who was worried about possible downsizing.%2Cp%2CTarget: The flighty secretary admitted that it might contain information about who would be fired.
1455556478,e8532579039cc5864c571bc32527a773,AcceptabilityJudgment,299,0,filler-110,103,NULL,6,NULL,2521
1455556478,e8532579039cc5864c571bc32527a773,AcceptabilityJudgment,215,0,almandine-1,34,div%2Cp%2CContext: One of the state-recommended psychologists encouraged gambling addicts to take up exercising to avoid temptation.%2Cp%2CTarget: The rich CEO said that Kyle helpfully prevented himself from losing any more money at the casino.
1455556478,e8532579039cc5864c571bc32527a773,AcceptabilityJudgment,215,0,almandine-1,34,NULL,2,NULL,5275
1455556478,e8532579039cc5864c571bc32527a773,AcceptabilityJudgment,270,0,filler-110,74,div%2Cp%2CContext: Most people are horrified that the tabloid printed those private pictures of celebrities.%2Cp%2CTarget: The respected reporter claims that it has disgraced itself as a media outlet.
1455556478,e8532579039cc5864c571bc32527a773,AcceptabilityJudgment,270,0,filler-110,74,NULL,6,NULL,3547
1455556478,e8532579039cc5864c571bc32527a773,AcceptabilityJudgment,271,0,filler-110,75,div%2Cp%2CContext: There was general outrage when a photograph which won several art competitions was revealed to have been photoshopped.%2Cp%2CTarget: One competitor has repeatedly insinuated that it misrepresented itself as an unaltered piece of photographic skill.
1455556478,e8532579039cc5864c571bc32527a773,AcceptabilityJudgment,271,0,filler-110,75,NULL,4,NULL,3983
1455556478,e8532579039cc5864c571bc32527a773,AcceptabilityJudgment,49,0,almandine-3,6,div%2Cp%2CContext: Several newspapers reported that a glowing letter recommended the financier for the job.%2Cp%2CTarget: The skilled businesswoman mentioned that it misleadingly described herself as hardworking and industrious during the interview.
1455556478,e8532579039cc5864c571bc32527a773,AcceptabilityJudgment,49,0,almandine-3,6,NULL,5,NULL,8193
1455556478,e8532579039cc5864c571bc32527a773,AcceptabilityJudgment,303,0,filler-110,107,div%2Cp%2CContext: Every year tourists visit the magnificent fountain to appreciate its beauty.%2Cp%2CTarget: The custodian complained that it always gets clogged with the coins they throw in.
1455556478,e8532579039cc5864c571bc32527a773,AcceptabilityJudgment,303,0,filler-110,107,NULL,6,NULL,7139
1455556478,e8532579039cc5864c571bc32527a773,AcceptabilityJudgment,301,0,filler-110,105,div%2Cp%2CContext: The sappy movie made everyone in the theater cry by the time the credits rolled.%2Cp%2CTarget: The popcorn vendor said that it had inspired some couples to propose right in the middle of the lobby.
1455556478,e8532579039cc5864c571bc32527a773,AcceptabilityJudgment,301,0,filler-110,105,NULL,4,NULL,6079
1455556478,e8532579039cc5864c571bc32527a773,AcceptabilityJudgment,63,0,almandine-5,8,div%2Cp%2CContext: To prank the school staff%2C I circulated a rumor about an undercover celebrity on campus.%2Cp%2CTarget: The gullible librarian admitted that I somehow managed to trick herself into believing that the story was true.
1455556478,e8532579039cc5864c571bc32527a773,AcceptabilityJudgment,63,0,almandine-5,8,NULL,1,NULL,4333
1455556478,e8532579039cc5864c571bc32527a773,AcceptabilityJudgment,248,0,filler-100,52,div%2Cp%2CContext: There was one young fan of the author who was particularly enthusiastic about the new book.%2Cp%2CTarget: The author asked if the young fan%2C who organized the book-signing%2C had invited Mary to the event.
1455556478,e8532579039cc5864c571bc32527a773,AcceptabilityJudgment,248,0,filler-100,52,NULL,5,NULL,3826
1455556478,e8532579039cc5864c571bc32527a773,AcceptabilityJudgment,245,0,filler-100,49,div%2Cp%2CContext: The company put several employees in charge of the hiring process.%2Cp%2CTarget: The applicant asked who the employee who conducted the interviews would hire if he could.
1455556478,e8532579039cc5864c571bc32527a773,AcceptabilityJudgment,245,0,filler-100,49,NULL,6,NULL,3767
1455556478,e8532579039cc5864c571bc32527a773,AcceptabilityJudgment,186,0,almandine-2,29,div%2Cp%2CContext: Many influential lobbyists held meetings with senators in DC.%2Cp%2CTarget: The female senator insisted that Joseph would definitely appoint himself as the new county commissioner before the election.
1455556478,e8532579039cc5864c571bc32527a773,AcceptabilityJudgment,186,0,almandine-2,29,NULL,5,NULL,5782
1455556478,e8532579039cc5864c571bc32527a773,AcceptabilityJudgment,233,0,filler-100,37,div%2Cp%2CContext: A lot of really interesting customers came into the butcher shop today.%2Cp%2CTarget: The butcher asked who the customer who bought Italian sausage had invited to dinner tonight.
1455556478,e8532579039cc5864c571bc32527a773,AcceptabilityJudgment,233,0,filler-100,37,NULL,6,NULL,8330
1455556478,e8532579039cc5864c571bc32527a773,AcceptabilityJudgment,244,0,filler-100,48,div%2Cp%2CContext: A gardener was doing some shopping at Home Depot today.%2Cp%2CTarget: The contractor wondered if the gardener%2C who loves tulips%2C had met anyone at the nursery.
1455556478,e8532579039cc5864c571bc32527a773,AcceptabilityJudgment,244,0,filler-100,48,NULL,5,NULL,4310
1455556478,e8532579039cc5864c571bc32527a773,AcceptabilityJudgment,92,0,almandine-4,13,div%2Cp%2CContext: Video surveillance gave evidence in the case of the hit-and-run.%2Cp%2CTarget: The conscientious mailman argued that it clearly implicated herself in the accident that happened in the driveway.
1455556478,e8532579039cc5864c571bc32527a773,AcceptabilityJudgment,92,0,almandine-4,13,NULL,2,NULL,4749
1455556478,e8532579039cc5864c571bc32527a773,AcceptabilityJudgment,267,0,filler-110,71,div%2Cp%2CContext: Unlike many people%2C I don't enjoy scary rides at amusement parks.%2Cp%2CTarget: The concession stand employee agreed that I should confine myself to eating popsicles all day instead.
1455556478,e8532579039cc5864c571bc32527a773,AcceptabilityJudgment,267,0,filler-110,71,NULL,5,NULL,6743
1455556478,e8532579039cc5864c571bc32527a773,AcceptabilityJudgment,265,0,filler-110,69,div%2Cp%2CContext: Since becoming a devout buddhist%2C I haven't eaten any meat.%2Cp%2CTarget: The local butcher doesn't understand why I would limit myself to only eating vegetables.
1455556478,e8532579039cc5864c571bc32527a773,AcceptabilityJudgment,265,0,filler-110,69,NULL,6,NULL,2453
1455556478,e8532579039cc5864c571bc32527a773,AcceptabilityJudgment,200,0,almandine-4,31,div%2Cp%2CContext: A hidden camera uncovered the possibility of police corruption.%2Cp%2CTarget: The undercover policewoman confessed that it had evidently recorded himself talking about the secret plot.
1455556478,e8532579039cc5864c571bc32527a773,AcceptabilityJudgment,200,0,almandine-4,31,NULL,5,NULL,6541
1455556478,e8532579039cc5864c571bc32527a773,AcceptabilityJudgment,292,0,filler-110,96,div%2Cp%2CContext: From time to time I like to get away from the city and reconnect with nature.%2Cp%2CTarget: The grimy conservationist was convinced that I could be converted to his cause%2C despite my stance on federal regulation.
1455556478,e8532579039cc5864c571bc32527a773,AcceptabilityJudgment,292,0,filler-110,96,NULL,4,NULL,7819
1455556478,e8532579039cc5864c571bc32527a773,AcceptabilityJudgment,236,0,filler-100,40,div%2Cp%2CContext: The star violinist in the orchestra can be very touchy.%2Cp%2CTarget: The conductor asked if the violinist%2C who was very upset%2C had talked to anyone before coming in.
1455556478,e8532579039cc5864c571bc32527a773,AcceptabilityJudgment,236,0,filler-100,40,NULL,6,NULL,7222
1455556478,e8532579039cc5864c571bc32527a773,AcceptabilityJudgment,143,0,almandine-1,22,div%2Cp%2CContext: A member of the film crew mentioned an unpleasant incident on set yesterday.%2Cp%2CTarget: The talented director said that Jacob uncharitably described himself as cruel and abusive in the workplace.
1455556478,e8532579039cc5864c571bc32527a773,AcceptabilityJudgment,143,0,almandine-1,22,NULL,4,NULL,6575
1455556478,e8532579039cc5864c571bc32527a773,AcceptabilityJudgment,259,0,filler-110,63,div%2Cp%2CContext: In a recent half marathon in San Diego%2C I finished dead last.%2Cp%2CTarget: The emergency nurse insisted I hadn't emasculated myself despite taking over eight hours to finish.
1455556478,e8532579039cc5864c571bc32527a773,AcceptabilityJudgment,259,0,filler-110,63,NULL,5,NULL,5836
1455556478,e8532579039cc5864c571bc32527a773,AcceptabilityJudgment,294,0,filler-110,98,div%2Cp%2CContext: The museum pamphlet seemed to indicate that the modern art exhibit was closed.%2Cp%2CTarget: The security guard said that it had been confusing patrons for years.
1455556478,e8532579039cc5864c571bc32527a773,AcceptabilityJudgment,294,0,filler-110,98,NULL,7,NULL,4808
1455556478,e8532579039cc5864c571bc32527a773,AcceptabilityJudgment,85,0,almandine-3,12,div%2Cp%2CContext: The senior citizens's lengthy apology seemed sincerely repentent for the questionable behavior.%2Cp%2CTarget: The elderly woman insisted that it would finally redeem herself in the eyes of her family.
1455556478,e8532579039cc5864c571bc32527a773,AcceptabilityJudgment,85,0,almandine-3,12,NULL,5,NULL,5896
1455556478,e8532579039cc5864c571bc32527a773,AcceptabilityJudgment,246,0,filler-100,50,div%2Cp%2CContext: A couple of little boys were causing some problems for the other children at the playground.%2Cp%2CTarget: The little girl wondered if the boy who was ignoring her had played with anyone during recess.
1455556478,e8532579039cc5864c571bc32527a773,AcceptabilityJudgment,246,0,filler-100,50,NULL,6,NULL,5143
1455556478,e8532579039cc5864c571bc32527a773,AcceptabilityJudgment,258,0,filler-110,62,div%2Cp%2CContext: After the extremely dull meeting%2C I convinced some coworkers to go out for drinks.%2Cp%2CTarget: The office secretary said that I thoroughly embarrassed myself at the bar.
1455556478,e8532579039cc5864c571bc32527a773,AcceptabilityJudgment,258,0,filler-110,62,NULL,5,NULL,8377
1455556478,e8532579039cc5864c571bc32527a773,AcceptabilityJudgment,71,0,almandine-1,10,div%2Cp%2CContext: One of the patients revealed that they had a crush on someone in the hospital.%2Cp%2CTarget: The flustered nurse complained that Rachel embarrassingly called herself very attractive and made suggestive comments.
1455556478,e8532579039cc5864c571bc32527a773,AcceptabilityJudgment,71,0,almandine-1,10,NULL,4,NULL,4872
1455556478,e8532579039cc5864c571bc32527a773,AcceptabilityJudgment,253,0,filler-100,57,div%2Cp%2CContext: The principal was worried about a number of students in the class.%2Cp%2CTarget: The teacher asked who the student who was failing math could talk to for some help.
1455556478,e8532579039cc5864c571bc32527a773,AcceptabilityJudgment,253,0,filler-100,57,NULL,6,NULL,4885
1455556478,e8532579039cc5864c571bc32527a773,AcceptabilityJudgment,249,0,filler-100,53,div%2Cp%2CContext: The neighboring city has some really excellent butchers.%2Cp%2CTarget: Joan didn't remember who the butcher who sold organic beef had hired to deliver his meat.
1455556478,e8532579039cc5864c571bc32527a773,AcceptabilityJudgment,249,0,filler-100,53,NULL,5,NULL,2760
1455556478,e8532579039cc5864c571bc32527a773,AcceptabilityJudgment,34,0,almandine-6,3,div%2Cp%2CContext: During a closed door meeting about hiring policy%2C I called into question recent decisions.%2Cp%2CTarget: The industrious councilman insisted that I frequently characterized herself as exceptionally helpful and diligent.
1455556478,e8532579039cc5864c571bc32527a773,AcceptabilityJudgment,34,0,almandine-6,3,NULL,3,NULL,9961
1455556478,e8532579039cc5864c571bc32527a773,AcceptabilityJudgment,288,0,filler-110,92,div%2Cp%2CContext: I believed that Santa was real until I was sixteen years old.%2Cp%2CTarget: The other girls at school couldn't believe that I could be so naive.
1455556478,e8532579039cc5864c571bc32527a773,AcceptabilityJudgment,288,0,filler-110,92,NULL,6,NULL,4375
1455556478,e8532579039cc5864c571bc32527a773,AcceptabilityJudgment,302,0,filler-110,106,div%2Cp%2CContext: Many literary critics were impressed that the beautiful poem had been written by an eleven year old.%2Cp%2CTarget: The prominent journal mentioned that it was a promising start to a young career.
1455556478,e8532579039cc5864c571bc32527a773,AcceptabilityJudgment,302,0,filler-110,106,NULL,5,NULL,5723
1455556478,e8532579039cc5864c571bc32527a773,AcceptabilityJudgment,20,0,almandine-4,1,div%2Cp%2CContext: In a recent media frenzy%2C a salacious tabloid said some unflattering things about Hollywood icons.%2Cp%2CTarget: The famous actor said that it unfairly depicted herself as unfeeling and unaffected by public opinion.
1455556478,e8532579039cc5864c571bc32527a773,AcceptabilityJudgment,20,0,almandine-4,1,NULL,3,NULL,8472
1455556478,e8532579039cc5864c571bc32527a773,AcceptabilityJudgment,284,0,filler-110,88,div%2Cp%2CContext: Until quite recently%2C I hadn't realized that hyenas are actually more closely related to cats than to dogs.%2Cp%2CTarget: The condescending biologist claimed that I was the first person he had met who didn't know this.
1455556478,e8532579039cc5864c571bc32527a773,AcceptabilityJudgment,284,0,filler-110,88,NULL,5,NULL,8699
1455556478,e8532579039cc5864c571bc32527a773,AcceptabilityJudgment,269,0,filler-110,73,div%2Cp%2CContext: Many critics were surprised that the novel so clearly referenced the author's troubled home life.%2Cp%2CTarget: The publicist insists that it clearly shows itself to be a phenomenal work of art.
1455556478,e8532579039cc5864c571bc32527a773,AcceptabilityJudgment,269,0,filler-110,73,NULL,6,NULL,4417
1455556478,e8532579039cc5864c571bc32527a773,AcceptabilityJudgment,193,0,almandine-3,30,div%2Cp%2CContext: A public opinion poll weighed in with thoughts about corporate greed.%2Cp%2CTarget: The arrogant businessman said that it had apparently characterized himself as greedy but successful.
1455556478,e8532579039cc5864c571bc32527a773,AcceptabilityJudgment,193,0,almandine-3,30,NULL,4,NULL,6008
1455556478,e8532579039cc5864c571bc32527a773,AcceptabilityJudgment,268,0,filler-110,72,div%2Cp%2CContext: I've never been to a protest or rally in my life.%2Cp%2CTarget: The FBI agent said that I cleared myself of wrongdoing by being so thoroughly a-political.
1455556478,e8532579039cc5864c571bc32527a773,AcceptabilityJudgment,268,0,filler-110,72,NULL,5,NULL,7290
1455556478,e8532579039cc5864c571bc32527a773,AcceptabilityJudgment,272,0,filler-110,76,div%2Cp%2CContext: An internal memo detailing corporate malfeasance was recently released to the public.%2Cp%2CTarget: The congresswoman said that it spoke for itself as evidence of corruption on Wall Street.
1455556478,e8532579039cc5864c571bc32527a773,AcceptabilityJudgment,272,0,filler-110,76,NULL,5,NULL,9666
1455556478,e8532579039cc5864c571bc32527a773,AcceptabilityJudgment,222,0,almandine-2,35,div%2Cp%2CContext: Some of the employees were known to have an uncompromising view on business ethics.%2Cp%2CTarget: The glamorous supermodel revealed that Alexander uncharitably blamed himself for all the compromises made on the way to the top.
1455556478,e8532579039cc5864c571bc32527a773,AcceptabilityJudgment,222,0,almandine-2,35,NULL,2,NULL,9993
1455556478,e8532579039cc5864c571bc32527a773,AcceptabilityJudgment,240,0,filler-100,44,div%2Cp%2CContext: The local TV station has a very well-known and respected reporter.%2Cp%2CTarget: I couldn't remember if the reporter%2C who does the morning news%2C had mentioned me in the big story.
1455556478,e8532579039cc5864c571bc32527a773,AcceptabilityJudgment,240,0,filler-100,44,NULL,4,NULL,6347
1455556478,e8532579039cc5864c571bc32527a773,AcceptabilityJudgment,257,0,filler-110,61,div%2Cp%2CContext: In a widely publicized television debate%2C I argued with several religious leaders about the reliability of scientific evidence.%2Cp%2CTarget: The evangelical pastor insisted that I clearly betrayed myself with comments about the scientific method.
1455556478,e8532579039cc5864c571bc32527a773,AcceptabilityJudgment,257,0,filler-110,61,NULL,5,NULL,5578
1455556478,e8532579039cc5864c571bc32527a773,AcceptabilityJudgment,70,0,almandine-6,9,div%2Cp%2CContext: During the hearings%2C I shed new light on the case.%2Cp%2CTarget: The innocent manager said that I definitely exonerated herself in the eyes of the court.
1455556478,e8532579039cc5864c571bc32527a773,AcceptabilityJudgment,70,0,almandine-6,9,NULL,2,NULL,5991
1455556478,e8532579039cc5864c571bc32527a773,AcceptabilityJudgment,283,0,filler-110,87,div%2Cp%2CContext: The community center offers several night classes that I have taken advantage of.%2Cp%2CTarget: The excitable calligraphy teacher insisted that I have the best penmanship he has ever seen.
1455556478,e8532579039cc5864c571bc32527a773,AcceptabilityJudgment,283,0,filler-110,87,NULL,5,NULL,6048
1455556478,e8532579039cc5864c571bc32527a773,AcceptabilityJudgment,277,0,filler-110,81,div%2Cp%2CContext: The insurance investigator reported that a stovetop burner started the massive fire.%2Cp%2CTarget: The homeowner swears that it ignited itself despite mounting evidence to the contrary.
1455556478,e8532579039cc5864c571bc32527a773,AcceptabilityJudgment,277,0,filler-110,81,NULL,5,NULL,11006
1455556478,e8532579039cc5864c571bc32527a773,AcceptabilityJudgment,150,0,almandine-2,23,div%2Cp%2CContext: A prominent White House staffer had been harping on the issue of immigration reform for a long while.%2Cp%2CTarget: The dutiful receptionist complained that Joshua maliciously misrepresented himself to young voters across the country.
1455556478,e8532579039cc5864c571bc32527a773,AcceptabilityJudgment,150,0,almandine-2,23,NULL,3,NULL,4436
1455556478,e8532579039cc5864c571bc32527a773,AcceptabilityJudgment,264,0,filler-110,68,div%2Cp%2CContext: At a consultation with a tax attorney%2C I complained about how high property taxes are.%2Cp%2CTarget: The accountant replied that I could save myself a lot of money by diversifying my interests.
1455556478,e8532579039cc5864c571bc32527a773,AcceptabilityJudgment,264,0,filler-110,68,NULL,6,NULL,5462
1455556478,e8532579039cc5864c571bc32527a773,AcceptabilityJudgment,255,0,filler-100,59,div%2Cp%2CContext: The school has a notorious bully.%2Cp%2CTarget: Pauline definitely knows who the bully%2C who beat up George%2C was harassing this week.
1455556478,e8532579039cc5864c571bc32527a773,AcceptabilityJudgment,255,0,filler-100,59,NULL,3,NULL,4859
1455556478,e8532579039cc5864c571bc32527a773,AcceptabilityJudgment,42,0,almandine-2,5,div%2Cp%2CContext: In what became a major scandal%2C some reporters revealed a celebrity's intimate secrets.%2Cp%2CTarget: The aspiring actor complained that Sarah cruelly portrayed herself as petty and vindictive.
1455556478,e8532579039cc5864c571bc32527a773,AcceptabilityJudgment,42,0,almandine-2,5,NULL,3,NULL,7647
1455556478,e8532579039cc5864c571bc32527a773,AcceptabilityJudgment,238,0,filler-100,42,div%2Cp%2CContext: Some of the dancers really didn't seem to be focusing on practice this morning.%2Cp%2CTarget: The choreographer didn't know if the dancer who danced clumsily had run into anyone during practice.
1455556478,e8532579039cc5864c571bc32527a773,AcceptabilityJudgment,238,0,filler-100,42,NULL,4,NULL,6700
1455556478,e8532579039cc5864c571bc32527a773,AcceptabilityJudgment,261,0,filler-110,65,div%2Cp%2CContext: Last night%2C I was kept up late writing college application essays.%2Cp%2CTarget: The guidance counsellor insists that I make myself more appealing to mid-range institutions.
1455556478,e8532579039cc5864c571bc32527a773,AcceptabilityJudgment,261,0,filler-110,65,NULL,5,NULL,4631
1455556478,e8532579039cc5864c571bc32527a773,AcceptabilityJudgment,121,0,almandine-3,18,div%2Cp%2CContext: A recent poll indicated that the new strategy wouldn't be very useful in a bid for reelection.%2Cp%2CTarget: The aging congresswoman argued that it completely underestimated herself during the long and grueling campaign.
1455556478,e8532579039cc5864c571bc32527a773,AcceptabilityJudgment,121,0,almandine-3,18,NULL,2,NULL,3375
1455556478,e8532579039cc5864c571bc32527a773,AcceptabilityJudgment,296,0,filler-110,100,div%2Cp%2CContext: The catchy new song was repeatedly played on just about every radio station.%2Cp%2CTarget: The talkshow host complained that it got stuck in his head almost every day.
1455556478,e8532579039cc5864c571bc32527a773,AcceptabilityJudgment,296,0,filler-110,100,NULL,5,NULL,4674
1455556478,e8532579039cc5864c571bc32527a773,AcceptabilityJudgment,280,0,filler-110,84,div%2Cp%2CContext: Japanese inventors recently announced that a new robot can perform complex feats of gymnastics.%2Cp%2CTarget: An impressed reporter looked on while it flipped itself off the edge of a balcony and onto a delicate balance beam below.
1455556478,e8532579039cc5864c571bc32527a773,AcceptabilityJudgment,280,0,filler-110,84,NULL,5,NULL,8047
1455556478,e8532579039cc5864c571bc32527a773,AcceptabilityJudgment,135,0,almandine-5,20,div%2Cp%2CContext: I adressed the issue of over-working student interns.%2Cp%2CTarget: The industrious schoolboy said that I usually allowed himself to take a break from archiving.
1455556478,e8532579039cc5864c571bc32527a773,AcceptabilityJudgment,135,0,almandine-5,20,NULL,2,NULL,4339
1455556478,e8532579039cc5864c571bc32527a773,AcceptabilityJudgment,291,0,filler-110,95,div%2Cp%2CContext: As a member of the Free Masons%2C I always laugh at conspiracy theories.%2Cp%2CTarget: The president of the club insists that I should be more concerned with public perception.
1455556478,e8532579039cc5864c571bc32527a773,AcceptabilityJudgment,291,0,filler-110,95,NULL,6,NULL,5817
# Columns below this comment are as follows:
# 1. Time results were received.
# 2. MD5 hash of participant's IP address.
# 3. Controller name.
# 4. Item number.
# 5. Element number.
# 6. Type.
# 7. Group.
# 8. Field name.
# 9. Field value.
1455556478,e8532579039cc5864c571bc32527a773,Form,5,0,exit,NULL,comments,
1455556478,e8532579039cc5864c571bc32527a773,Form,5,0,exit,NULL,priorExpt,yes
1455556478,e8532579039cc5864c571bc32527a773,Form,5,0,exit,NULL,priorRefl,no
1455556478,e8532579039cc5864c571bc32527a773,Form,5,0,exit,NULL,logLang,no
1455556478,e8532579039cc5864c571bc32527a773,Form,5,0,exit,NULL,logContrast,yes2
1455556478,e8532579039cc5864c571bc32527a773,Form,6,0,exit,NULL,randomfield,ewd20r1L
1455556478,e8532579039cc5864c571bc32527a773,Form,6,0,exit,NULL,worker_id,A2XFO0X6RCS98M
1455556478,e8532579039cc5864c571bc32527a773,Form,6,0,exit,NULL,identifier,ewd20r1L
#
# Results on Monday February 15 2016 17:21:24 UTC.
# USER AGENT: Mozilla/5.0 (Windows NT 6.1; WOW64) AppleWebKit/537.36 (KHTML, like Gecko) Chrome/48.0.2564.109 Safari/537.36
# Design number was non-random = 0
#
# Columns below this comment are as follows:
# 1. Time results were received.
# 2. MD5 hash of participant's IP address.
# 3. Controller name.
# 4. Item number.
# 5. Element number.
# 6. Type.
# 7. Group.
# 8. Field name.
# 9. Field value.
1455556885,b6eab12e54463047ead3937ccb4bca03,Form,2,0,consent,NULL,workerID,
1455556885,b6eab12e54463047ead3937ccb4bca03,Form,3,0,consent,NULL,consent,yes
# The lines below this comment are in groups of 2.
# The formats of the lines in each of these groups are as follows:
#
# Line 1:
#     Col. 1: Time results were received.
#     Col. 2: MD5 hash of participant's IP address.
#     Col. 3: Controller name.
#     Col. 4: Item number.
#     Col. 5: Element number.
#     Col. 6: Type.
#     Col. 7: Group.
#     Col. 8: Sentence (or sentence MD5).
# Line 2:
#     Col. 1: Time results were received.
#     Col. 2: MD5 hash of participant's IP address.
#     Col. 3: Controller name.
#     Col. 4: Item number.
#     Col. 5: Element number.
#     Col. 6: Type.
#     Col. 7: Group.
#     Col. 8: Question (NULL if none).
#     Col. 9: Answer.
#     Col. 10: Whether or not answer was correct (NULL if N/A).
#     Col. 11: Time taken to answer.
1455556885,b6eab12e54463047ead3937ccb4bca03,AcceptabilityJudgment,12,0,practice,NULL,div%2Cp%2CContext: It was Christmas time%2C and everyone was really excited.%2Cp%2CTarget: The kids decorated the ornaments onto the tree.
1455556885,b6eab12e54463047ead3937ccb4bca03,AcceptabilityJudgment,12,0,practice,NULL,NULL,3,NULL,6253
1455556885,b6eab12e54463047ead3937ccb4bca03,AcceptabilityJudgment,13,0,practice,NULL,div%2Cp%2CContext: John asked me yesterday who all was going to be coming over.%2Cp%2CTarget: I know that Bill and Mary were planning on attending the party last night.
1455556885,b6eab12e54463047ead3937ccb4bca03,AcceptabilityJudgment,13,0,practice,NULL,NULL,5,NULL,9854
1455556885,b6eab12e54463047ead3937ccb4bca03,AcceptabilityJudgment,14,0,practice,NULL,div%2Cp%2CContext: Mary is usually fairly skeptical of public officials.%2Cp%2CTarget: Which politician did she believe the scientist and?
1455556885,b6eab12e54463047ead3937ccb4bca03,AcceptabilityJudgment,14,0,practice,NULL,NULL,5,NULL,28
1455556885,b6eab12e54463047ead3937ccb4bca03,AcceptabilityJudgment,15,0,practice,NULL,div%2Cp%2CContext: Unfortunately%2C Susy was a little bit out of the social loop.%2Cp%2CTarget: John doubted that she knew anything of what went on after work.
1455556885,b6eab12e54463047ead3937ccb4bca03,AcceptabilityJudgment,15,0,practice,NULL,NULL,4,NULL,5583
1455556885,b6eab12e54463047ead3937ccb4bca03,AcceptabilityJudgment,251,0,filler-100,55,div%2Cp%2CContext: Only one doctor was assigned to every patient when the ER was overrun.%2Cp%2CTarget: The nurse asked who the doctor%2C who treated the crash victim%2C had examined very thoroughly.
1455556885,b6eab12e54463047ead3937ccb4bca03,AcceptabilityJudgment,251,0,filler-100,55,NULL,6,NULL,7251
1455556885,b6eab12e54463047ead3937ccb4bca03,AcceptabilityJudgment,275,0,filler-110,79,div%2Cp%2CContext: A podcast which parodies TED talks has been gaining popularity lately.%2Cp%2CTarget: One prominent CEO has claimed that it obviously invalidates itself by failing to deal with the very real issues discussed by TED speakers.
1455556885,b6eab12e54463047ead3937ccb4bca03,AcceptabilityJudgment,275,0,filler-110,79,NULL,5,NULL,3355
1455556885,b6eab12e54463047ead3937ccb4bca03,AcceptabilityJudgment,45,0,almandine-5,5,div%2Cp%2CContext: In what became a major scandal%2C I revealed a celebrity's intimate secrets.%2Cp%2CTarget: The aspiring actress complained that I cruelly portrayed herself as petty and vindictive.
1455556885,b6eab12e54463047ead3937ccb4bca03,AcceptabilityJudgment,45,0,almandine-5,5,NULL,3,NULL,1680
1455556885,b6eab12e54463047ead3937ccb4bca03,AcceptabilityJudgment,261,0,filler-110,65,div%2Cp%2CContext: Last night%2C I was kept up late writing college application essays.%2Cp%2CTarget: The guidance counsellor insists that I make myself more appealing to mid-range institutions.
1455556885,b6eab12e54463047ead3937ccb4bca03,AcceptabilityJudgment,261,0,filler-110,65,NULL,4,NULL,908
1455556885,b6eab12e54463047ead3937ccb4bca03,AcceptabilityJudgment,249,0,filler-100,53,div%2Cp%2CContext: The neighboring city has some really excellent butchers.%2Cp%2CTarget: Joan didn't remember who the butcher who sold organic beef had hired to deliver his meat.
1455556885,b6eab12e54463047ead3937ccb4bca03,AcceptabilityJudgment,249,0,filler-100,53,NULL,5,NULL,2416
1455556885,b6eab12e54463047ead3937ccb4bca03,AcceptabilityJudgment,204,0,almandine-2,32,div%2Cp%2CContext: A member of the city council was impressed with the police response to the dangerous confrontation.%2Cp%2CTarget: The popular policewoman reported that David had thoughtfully nominated himself for the prestigious community service award.
1455556885,b6eab12e54463047ead3937ccb4bca03,AcceptabilityJudgment,204,0,almandine-2,32,NULL,6,NULL,1833
1455556885,b6eab12e54463047ead3937ccb4bca03,AcceptabilityJudgment,301,0,filler-110,105,div%2Cp%2CContext: The sappy movie made everyone in the theater cry by the time the credits rolled.%2Cp%2CTarget: The popcorn vendor said that it had inspired some couples to propose right in the middle of the lobby.
1455556885,b6eab12e54463047ead3937ccb4bca03,AcceptabilityJudgment,301,0,filler-110,105,NULL,2,NULL,5120
1455556885,b6eab12e54463047ead3937ccb4bca03,AcceptabilityJudgment,302,0,filler-110,106,div%2Cp%2CContext: Many literary critics were impressed that the beautiful poem had been written by an eleven year old.%2Cp%2CTarget: The prominent journal mentioned that it was a promising start to a young career.
1455556885,b6eab12e54463047ead3937ccb4bca03,AcceptabilityJudgment,302,0,filler-110,106,NULL,2,NULL,4616
1455556885,b6eab12e54463047ead3937ccb4bca03,AcceptabilityJudgment,88,0,almandine-6,12,div%2Cp%2CContext: I seemed sincerely repentent for the questionable behavior.%2Cp%2CTarget: The elderly man insisted that I would finally redeem herself in the eyes of her family.
1455556885,b6eab12e54463047ead3937ccb4bca03,AcceptabilityJudgment,88,0,almandine-6,12,NULL,5,NULL,1168
