#
# Results on Thursday February 18 2016 15:45:42 UTC.
# USER AGENT: Mozilla/5.0 (Windows NT 6.1) AppleWebKit/537.36 (KHTML, like Gecko) Chrome/48.0.2564.109 Safari/537.36
# Design number was non-random = 0
#
# Columns below this comment are as follows:
# 1. Time results were received.
# 2. MD5 hash of participant's IP address.
# 3. Controller name.
# 4. Item number.
# 5. Element number.
# 6. Type.
# 7. Group.
# 8. Field name.
# 9. Field value.
1455810342,df2a57d798f75d9ce9bdf52ea17ad081,Form,2,0,consent,NULL,workerID,
1455810342,df2a57d798f75d9ce9bdf52ea17ad081,Form,3,0,consent,NULL,consent,yes
1455810342,df2a57d798f75d9ce9bdf52ea17ad081,SSForm,4,0,consent,NULL,nLang,English
1455810342,df2a57d798f75d9ce9bdf52ea17ad081,SSForm,4,0,consent,NULL,pLang,English
1455810342,df2a57d798f75d9ce9bdf52ea17ad081,SSForm,4,0,consent,NULL,oLang,none
1455810342,df2a57d798f75d9ce9bdf52ea17ad081,SSForm,4,0,consent,NULL,dLang,English
1455810342,df2a57d798f75d9ce9bdf52ea17ad081,SSForm,4,0,consent,NULL,gender,female
1455810342,df2a57d798f75d9ce9bdf52ea17ad081,SSForm,4,0,consent,NULL,age,36
1455810342,df2a57d798f75d9ce9bdf52ea17ad081,SSForm,4,0,consent,NULL,state,PA
# The lines below this comment are in groups of 2.
# The formats of the lines in each of these groups are as follows:
#
# Line 1:
#     Col. 1: Time results were received.
#     Col. 2: MD5 hash of participant's IP address.
#     Col. 3: Controller name.
#     Col. 4: Item number.
#     Col. 5: Element number.
#     Col. 6: Type.
#     Col. 7: Group.
#     Col. 8: Sentence (or sentence MD5).
# Line 2:
#     Col. 1: Time results were received.
#     Col. 2: MD5 hash of participant's IP address.
#     Col. 3: Controller name.
#     Col. 4: Item number.
#     Col. 5: Element number.
#     Col. 6: Type.
#     Col. 7: Group.
#     Col. 8: Question (NULL if none).
#     Col. 9: Answer.
#     Col. 10: Whether or not answer was correct (NULL if N/A).
#     Col. 11: Time taken to answer.
1455810342,df2a57d798f75d9ce9bdf52ea17ad081,AcceptabilityJudgment,12,0,practice,NULL,div%2Cp%2CContext: It was Christmas time%2C and everyone was really excited.%2Cp%2CTarget: The kids decorated the ornaments onto the tree.
1455810342,df2a57d798f75d9ce9bdf52ea17ad081,AcceptabilityJudgment,12,0,practice,NULL,NULL,1,NULL,6604
1455810342,df2a57d798f75d9ce9bdf52ea17ad081,AcceptabilityJudgment,13,0,practice,NULL,div%2Cp%2CContext: John asked me yesterday who all was going to be coming over.%2Cp%2CTarget: I know that Bill and Mary were planning on attending the party last night.
1455810342,df2a57d798f75d9ce9bdf52ea17ad081,AcceptabilityJudgment,13,0,practice,NULL,NULL,6,NULL,16883
1455810342,df2a57d798f75d9ce9bdf52ea17ad081,AcceptabilityJudgment,14,0,practice,NULL,div%2Cp%2CContext: Mary is usually fairly skeptical of public officials.%2Cp%2CTarget: Which politician did she believe the scientist and?
1455810342,df2a57d798f75d9ce9bdf52ea17ad081,AcceptabilityJudgment,14,0,practice,NULL,NULL,1,NULL,7922
1455810342,df2a57d798f75d9ce9bdf52ea17ad081,AcceptabilityJudgment,15,0,practice,NULL,div%2Cp%2CContext: Unfortunately%2C Susy was a little bit out of the social loop.%2Cp%2CTarget: John doubted that she knew anything of what went on after work.
1455810342,df2a57d798f75d9ce9bdf52ea17ad081,AcceptabilityJudgment,15,0,practice,NULL,NULL,7,NULL,7449
1455810342,df2a57d798f75d9ce9bdf52ea17ad081,AcceptabilityJudgment,275,0,filler-110,79,div%2Cp%2CContext: A podcast which parodies TED talks has been gaining popularity lately.%2Cp%2CTarget: One prominent CEO has claimed that it obviously invalidates itself by failing to deal with the very real issues discussed by TED speakers.
1455810342,df2a57d798f75d9ce9bdf52ea17ad081,AcceptabilityJudgment,275,0,filler-110,79,NULL,6,NULL,10682
1455810342,df2a57d798f75d9ce9bdf52ea17ad081,AcceptabilityJudgment,273,0,filler-110,77,div%2Cp%2CContext: The small children were delighted that the storybook included many detailed illustrations.%2Cp%2CTarget: The nanny thought that it perhaps took itself a little too seriously%2C but didn't want to spoil the children's fun.
1455810342,df2a57d798f75d9ce9bdf52ea17ad081,AcceptabilityJudgment,273,0,filler-110,77,NULL,7,NULL,6771
1455810342,df2a57d798f75d9ce9bdf52ea17ad081,AcceptabilityJudgment,161,0,almandine-1,25,div%2Cp%2CContext: One of New York's best-known critics was featured in a Bon Apetit expose on flourishing counterculture movements in Brooklyn.%2Cp%2CTarget: The charming butcher boasted that Brandon highly praised himself for a job skillfully and tastefully done.
1455810342,df2a57d798f75d9ce9bdf52ea17ad081,AcceptabilityJudgment,161,0,almandine-1,25,NULL,4,NULL,16806
1455810342,df2a57d798f75d9ce9bdf52ea17ad081,AcceptabilityJudgment,282,0,filler-110,86,div%2Cp%2CContext: Last week the bookstore you frequently visit was having a huge sale on new-release hardcovers.%2Cp%2CTarget: The cashier mentioned that you bought more books than anyone else.
1455810342,df2a57d798f75d9ce9bdf52ea17ad081,AcceptabilityJudgment,282,0,filler-110,86,NULL,7,NULL,7474
1455810342,df2a57d798f75d9ce9bdf52ea17ad081,AcceptabilityJudgment,255,0,filler-100,59,div%2Cp%2CContext: The school has a notorious bully.%2Cp%2CTarget: Pauline definitely knows who the bully%2C who beat up George%2C was harassing this week.
1455810342,df2a57d798f75d9ce9bdf52ea17ad081,AcceptabilityJudgment,255,0,filler-100,59,NULL,5,NULL,7040
1455810342,df2a57d798f75d9ce9bdf52ea17ad081,AcceptabilityJudgment,89,0,almandine-1,13,div%2Cp%2CContext: A few passersby gave evidence in the case of the hit-and-run.%2Cp%2CTarget: The conscientious nanny argued that Lauren clearly implicated herself in the accident that happened in the driveway.
1455810342,df2a57d798f75d9ce9bdf52ea17ad081,AcceptabilityJudgment,89,0,almandine-1,13,NULL,6,NULL,10625
1455810342,df2a57d798f75d9ce9bdf52ea17ad081,AcceptabilityJudgment,303,0,filler-110,107,div%2Cp%2CContext: Every year tourists visit the magnificent fountain to appreciate its beauty.%2Cp%2CTarget: The custodian complained that it always gets clogged with the coins they throw in.
1455810342,df2a57d798f75d9ce9bdf52ea17ad081,AcceptabilityJudgment,303,0,filler-110,107,NULL,6,NULL,6196
1455810342,df2a57d798f75d9ce9bdf52ea17ad081,AcceptabilityJudgment,242,0,filler-100,46,div%2Cp%2CContext: Some of the businessmen were very vocal about their politics.%2Cp%2CTarget: The oilman wondered if the businessman who hated fossil fuels had fired someone from his company.
1455810342,df2a57d798f75d9ce9bdf52ea17ad081,AcceptabilityJudgment,242,0,filler-100,46,NULL,5,NULL,6774
1455810342,df2a57d798f75d9ce9bdf52ea17ad081,AcceptabilityJudgment,168,0,almandine-2,26,div%2Cp%2CContext: One of the key witnesses was called into question during the trial.%2Cp%2CTarget: The friendly receptionist admitted that Daniel apparently identified himself as a potential suspect in an ongoing investigation.
1455810342,df2a57d798f75d9ce9bdf52ea17ad081,AcceptabilityJudgment,168,0,almandine-2,26,NULL,6,NULL,7339
1455810342,df2a57d798f75d9ce9bdf52ea17ad081,AcceptabilityJudgment,270,0,filler-110,74,div%2Cp%2CContext: Most people are horrified that the tabloid printed those private pictures of celebrities.%2Cp%2CTarget: The respected reporter claims that it has disgraced itself as a media outlet.
1455810342,df2a57d798f75d9ce9bdf52ea17ad081,AcceptabilityJudgment,270,0,filler-110,74,NULL,5,NULL,10360
1455810342,df2a57d798f75d9ce9bdf52ea17ad081,AcceptabilityJudgment,267,0,filler-110,71,div%2Cp%2CContext: Unlike many people%2C you don't enjoy scary rides at amusement parks.%2Cp%2CTarget: The concession stand employee agreed that you should confine yourself to eating popsicles all day instead.
1455810342,df2a57d798f75d9ce9bdf52ea17ad081,AcceptabilityJudgment,267,0,filler-110,71,NULL,6,NULL,9525
1455810342,df2a57d798f75d9ce9bdf52ea17ad081,AcceptabilityJudgment,96,0,almandine-2,14,div%2Cp%2CContext: One of the campus RAs caught some college students heading out for the evening.%2Cp%2CTarget: The frat boy mentioned that Courtney sneakily photographed herself on the way to the party.
1455810342,df2a57d798f75d9ce9bdf52ea17ad081,AcceptabilityJudgment,96,0,almandine-2,14,NULL,5,NULL,8492
1455810342,df2a57d798f75d9ce9bdf52ea17ad081,AcceptabilityJudgment,290,0,filler-110,94,div%2Cp%2CContext: You think it's important to be willing to try new foods.%2Cp%2CTarget: The snobby chef was impressed that you would eat anything he put in front of you.
1455810342,df2a57d798f75d9ce9bdf52ea17ad081,AcceptabilityJudgment,290,0,filler-110,94,NULL,7,NULL,4641
1455810342,df2a57d798f75d9ce9bdf52ea17ad081,AcceptabilityJudgment,256,0,filler-100,60,div%2Cp%2CContext: One customer in the cafe seemed to spend all day there.%2Cp%2CTarget: The barista wondered if the customer%2C who ordered a decaf latte%2C was meeting someone in the cafe.
1455810342,df2a57d798f75d9ce9bdf52ea17ad081,AcceptabilityJudgment,256,0,filler-100,60,NULL,6,NULL,6574
1455810342,df2a57d798f75d9ce9bdf52ea17ad081,AcceptabilityJudgment,52,0,almandine-6,6,div%2Cp%2CContext: Several newspapers reported that you recommended the financier for the job.%2Cp%2CTarget: The skilled businessman mentioned that you misleadingly described herself as hardworking and industrious during the interview.
1455810342,df2a57d798f75d9ce9bdf52ea17ad081,AcceptabilityJudgment,52,0,almandine-6,6,NULL,3,NULL,21166
1455810342,df2a57d798f75d9ce9bdf52ea17ad081,AcceptabilityJudgment,254,0,filler-100,58,div%2Cp%2CContext: A couple of chatty new neighbors moved into the neighborhood recently.%2Cp%2CTarget: Billy forgot if the neighbor who moved from Indiana was dating Susan this time last year.
1455810342,df2a57d798f75d9ce9bdf52ea17ad081,AcceptabilityJudgment,254,0,filler-100,58,NULL,5,NULL,7375
1455810342,df2a57d798f75d9ce9bdf52ea17ad081,AcceptabilityJudgment,293,0,filler-110,97,div%2Cp%2CContext: In a dramatic turnaround%2C the soap opera brought in significantly more viewers than expected.%2Cp%2CTarget: The shocked analyst said that it would probably continue to draw viewers for another five seasons.
1455810342,df2a57d798f75d9ce9bdf52ea17ad081,AcceptabilityJudgment,293,0,filler-110,97,NULL,6,NULL,7786
1455810342,df2a57d798f75d9ce9bdf52ea17ad081,AcceptabilityJudgment,153,0,almandine-5,23,div%2Cp%2CContext: You had been harping on the issue of immigration reform for a long while.%2Cp%2CTarget: The republican congressman complained that you maliciously misrepresented himself to young voters across the country.
1455810342,df2a57d798f75d9ce9bdf52ea17ad081,AcceptabilityJudgment,153,0,almandine-5,23,NULL,5,NULL,8175
1455810342,df2a57d798f75d9ce9bdf52ea17ad081,AcceptabilityJudgment,268,0,filler-110,72,div%2Cp%2CContext: You've never been to a protest or rally in your life.%2Cp%2CTarget: The FBI agent said that you cleared yourself of wrongdoing by being so thoroughly a-political.
1455810342,df2a57d798f75d9ce9bdf52ea17ad081,AcceptabilityJudgment,268,0,filler-110,72,NULL,5,NULL,6999
1455810342,df2a57d798f75d9ce9bdf52ea17ad081,AcceptabilityJudgment,279,0,filler-110,83,div%2Cp%2CContext: While still learning to climb%2C the baby orangutang fell from a dangerously high branch.%2Cp%2CTarget: The field biologist was very happy that it managed to catch itself on the way down.
1455810342,df2a57d798f75d9ce9bdf52ea17ad081,AcceptabilityJudgment,279,0,filler-110,83,NULL,7,NULL,22335
1455810342,df2a57d798f75d9ce9bdf52ea17ad081,AcceptabilityJudgment,196,0,almandine-6,30,div%2Cp%2CContext: You weighed in with thoughts about corporate greed.%2Cp%2CTarget: The arrogant businesswoman said that you had apparently characterized himself as greedy but successful.
1455810342,df2a57d798f75d9ce9bdf52ea17ad081,AcceptabilityJudgment,196,0,almandine-6,30,NULL,5,NULL,11718
1455810342,df2a57d798f75d9ce9bdf52ea17ad081,AcceptabilityJudgment,237,0,filler-100,41,div%2Cp%2CContext: This town has many very well-qualified contractors that you could hire.%2Cp%2CTarget: The homeowner asked who the contractor who fixed the roof would hire for the next job.
1455810342,df2a57d798f75d9ce9bdf52ea17ad081,AcceptabilityJudgment,237,0,filler-100,41,NULL,4,NULL,16907
1455810342,df2a57d798f75d9ce9bdf52ea17ad081,AcceptabilityJudgment,243,0,filler-100,47,div%2Cp%2CContext: One of the lawyers in the courtroom was called into the judge's personal chambers.%2Cp%2CTarget: The judge asked who the lawyer%2C who represented the defendant%2C was working with on the case.
1455810342,df2a57d798f75d9ce9bdf52ea17ad081,AcceptabilityJudgment,243,0,filler-100,47,NULL,6,NULL,7426
1455810342,df2a57d798f75d9ce9bdf52ea17ad081,AcceptabilityJudgment,160,0,almandine-6,24,div%2Cp%2CContext: You brought up several issues with mismanagement at the large financial firm.%2Cp%2CTarget: The diligent secretary argued that you unintentionally cast himself in a negative and slanderous light at the board meeting.
1455810342,df2a57d798f75d9ce9bdf52ea17ad081,AcceptabilityJudgment,160,0,almandine-6,24,NULL,6,NULL,8174
1455810342,df2a57d798f75d9ce9bdf52ea17ad081,AcceptabilityJudgment,259,0,filler-110,63,div%2Cp%2CContext: In a recent half marathon in San Diego%2C you finished dead last.%2Cp%2CTarget: The emergency nurse insisted you hadn't emasculated yourself despite taking over eight hours to finish.
1455810342,df2a57d798f75d9ce9bdf52ea17ad081,AcceptabilityJudgment,259,0,filler-110,63,NULL,6,NULL,6777
1455810342,df2a57d798f75d9ce9bdf52ea17ad081,AcceptabilityJudgment,261,0,filler-110,65,div%2Cp%2CContext: Last night%2C you was kept up late writing college application essays.%2Cp%2CTarget: The guidance counsellor insists that you make yourself more appealing to mid-range institutions.
1455810342,df2a57d798f75d9ce9bdf52ea17ad081,AcceptabilityJudgment,261,0,filler-110,65,NULL,6,NULL,9707
1455810342,df2a57d798f75d9ce9bdf52ea17ad081,AcceptabilityJudgment,60,0,almandine-2,8,div%2Cp%2CContext: To prank the school staff%2C a few students circulated a rumor about an undercover celebrity on campus.%2Cp%2CTarget: The gullible janitor admitted that Elizabeth somehow managed to trick herself into believing that the story was true.
1455810342,df2a57d798f75d9ce9bdf52ea17ad081,AcceptabilityJudgment,60,0,almandine-2,8,NULL,5,NULL,10935
1455810342,df2a57d798f75d9ce9bdf52ea17ad081,AcceptabilityJudgment,262,0,filler-110,66,div%2Cp%2CContext: In a job interview for a conservative law firm%2C you made the mistake of talking about your ties to the communist party.%2Cp%2CTarget: The officious interviewer disliked that you aligned yourself so closely with such left-leaning policies.
1455810342,df2a57d798f75d9ce9bdf52ea17ad081,AcceptabilityJudgment,262,0,filler-110,66,NULL,5,NULL,9558
1455810342,df2a57d798f75d9ce9bdf52ea17ad081,AcceptabilityJudgment,272,0,filler-110,76,div%2Cp%2CContext: An internal memo detailing corporate malfeasance was recently released to the public.%2Cp%2CTarget: The congresswoman said that it spoke for itself as evidence of corruption on Wall Street.
1455810342,df2a57d798f75d9ce9bdf52ea17ad081,AcceptabilityJudgment,272,0,filler-110,76,NULL,6,NULL,11329
1455810342,df2a57d798f75d9ce9bdf52ea17ad081,AcceptabilityJudgment,74,0,almandine-4,10,div%2Cp%2CContext: The patient's diary revealed that they had a crush on someone in the hospital.%2Cp%2CTarget: The flustered doctor complained that it embarrassingly called herself very attractive and made suggestive comments.
1455810342,df2a57d798f75d9ce9bdf52ea17ad081,AcceptabilityJudgment,74,0,almandine-4,10,NULL,5,NULL,10701
1455810342,df2a57d798f75d9ce9bdf52ea17ad081,AcceptabilityJudgment,301,0,filler-110,105,div%2Cp%2CContext: The sappy movie made everyone in the theater cry by the time the credits rolled.%2Cp%2CTarget: The popcorn vendor said that it had inspired some couples to propose right in the middle of the lobby.
1455810342,df2a57d798f75d9ce9bdf52ea17ad081,AcceptabilityJudgment,301,0,filler-110,105,NULL,6,NULL,6460
1455810342,df2a57d798f75d9ce9bdf52ea17ad081,AcceptabilityJudgment,271,0,filler-110,75,div%2Cp%2CContext: There was general outrage when a photograph which won several art competitions was revealed to have been photoshopped.%2Cp%2CTarget: One competitor has repeatedly insinuated that it misrepresented itself as an unaltered piece of photographic skill.
1455810342,df2a57d798f75d9ce9bdf52ea17ad081,AcceptabilityJudgment,271,0,filler-110,75,NULL,3,NULL,17631
1455810342,df2a57d798f75d9ce9bdf52ea17ad081,AcceptabilityJudgment,139,0,almandine-3,21,div%2Cp%2CContext: The newspaper was concerned with the accuracy of some of the statements made to the public.%2Cp%2CTarget: The trustworthy policeman reported that it roundly criticized himself for the error during the trial.
1455810342,df2a57d798f75d9ce9bdf52ea17ad081,AcceptabilityJudgment,139,0,almandine-3,21,NULL,5,NULL,8023
1455810342,df2a57d798f75d9ce9bdf52ea17ad081,AcceptabilityJudgment,260,0,filler-110,64,div%2Cp%2CContext: At a concert last night%2C you was struggling to find a friend who had become separated from the group.%2Cp%2CTarget: The security guard noted that you had shouted yourself hoarse and offered to help.
1455810342,df2a57d798f75d9ce9bdf52ea17ad081,AcceptabilityJudgment,260,0,filler-110,64,NULL,5,NULL,7558
1455810342,df2a57d798f75d9ce9bdf52ea17ad081,AcceptabilityJudgment,278,0,filler-110,82,div%2Cp%2CContext: Before the long car trip%2C the dog walker tried to get the puppy to play a lot in the yard.%2Cp%2CTarget: The dog's owner hoped it would tire itself out before they had to drive across the country.
1455810342,df2a57d798f75d9ce9bdf52ea17ad081,AcceptabilityJudgment,278,0,filler-110,82,NULL,7,NULL,8213
1455810342,df2a57d798f75d9ce9bdf52ea17ad081,AcceptabilityJudgment,31,0,almandine-3,3,div%2Cp%2CContext: During a closed door meeting about hiring policy%2C a private report called into question recent decisions.%2Cp%2CTarget: The industrious councilwoman insisted that it frequently characterized herself as exceptionally helpful and diligent.
1455810342,df2a57d798f75d9ce9bdf52ea17ad081,AcceptabilityJudgment,31,0,almandine-3,3,NULL,6,NULL,11266
1455810342,df2a57d798f75d9ce9bdf52ea17ad081,AcceptabilityJudgment,233,0,filler-100,37,div%2Cp%2CContext: A lot of really interesting customers came into the butcher shop today.%2Cp%2CTarget: The butcher asked who the customer who bought Italian sausage had invited to dinner tonight.
1455810342,df2a57d798f75d9ce9bdf52ea17ad081,AcceptabilityJudgment,233,0,filler-100,37,NULL,6,NULL,7308
1455810342,df2a57d798f75d9ce9bdf52ea17ad081,AcceptabilityJudgment,240,0,filler-100,44,div%2Cp%2CContext: The local TV station has a very well-known and respected reporter.%2Cp%2CTarget: I couldn't remember if the reporter%2C who does the morning news%2C had mentioned me in the big story.
1455810342,df2a57d798f75d9ce9bdf52ea17ad081,AcceptabilityJudgment,240,0,filler-100,44,NULL,7,NULL,5130
1455810342,df2a57d798f75d9ce9bdf52ea17ad081,AcceptabilityJudgment,24,0,almandine-2,2,div%2Cp%2CContext: After the devastating earthquake%2C some rescue workers received a lot of media attention.%2Cp%2CTarget: The influential congressman said that Ashley definitely inspired herself to give back to the community more.
1455810342,df2a57d798f75d9ce9bdf52ea17ad081,AcceptabilityJudgment,24,0,almandine-2,2,NULL,4,NULL,9895
1455810342,df2a57d798f75d9ce9bdf52ea17ad081,AcceptabilityJudgment,298,0,filler-110,102,div%2Cp%2CContext: In the middle of the severe storm%2C an emergency broadcast was sent out to warn about potential flooding.%2Cp%2CTarget: The weatherman worried that it wouldn't reach enough people in time.
1455810342,df2a57d798f75d9ce9bdf52ea17ad081,AcceptabilityJudgment,298,0,filler-110,102,NULL,7,NULL,7558
1455810342,df2a57d798f75d9ce9bdf52ea17ad081,AcceptabilityJudgment,277,0,filler-110,81,div%2Cp%2CContext: The insurance investigator reported that a stovetop burner started the massive fire.%2Cp%2CTarget: The homeowner swears that it ignited itself despite mounting evidence to the contrary.
1455810342,df2a57d798f75d9ce9bdf52ea17ad081,AcceptabilityJudgment,277,0,filler-110,81,NULL,6,NULL,8275
1455810342,df2a57d798f75d9ce9bdf52ea17ad081,AcceptabilityJudgment,175,0,almandine-3,27,div%2Cp%2CContext: The moving documentary brought to light the serious ethical implications of over-breeding pets.%2Cp%2CTarget: The legendary rock star said that it definitely inspired himself to write a new song about this social injustice.
1455810342,df2a57d798f75d9ce9bdf52ea17ad081,AcceptabilityJudgment,175,0,almandine-3,27,NULL,3,NULL,8742
1455810342,df2a57d798f75d9ce9bdf52ea17ad081,AcceptabilityJudgment,244,0,filler-100,48,div%2Cp%2CContext: A gardener was doing some shopping at Home Depot today.%2Cp%2CTarget: The contractor wondered if the gardener%2C who loves tulips%2C had met anyone at the nursery.
1455810342,df2a57d798f75d9ce9bdf52ea17ad081,AcceptabilityJudgment,244,0,filler-100,48,NULL,6,NULL,7823
1455810342,df2a57d798f75d9ce9bdf52ea17ad081,AcceptabilityJudgment,235,0,filler-100,39,div%2Cp%2CContext: After the big brawl%2C there was actually only one student who had gotten in trouble.%2Cp%2CTarget: The principal wanted to know who the student%2C who was expelled%2C had threatened with a knife.
1455810342,df2a57d798f75d9ce9bdf52ea17ad081,AcceptabilityJudgment,235,0,filler-100,39,NULL,5,NULL,5944
1455810342,df2a57d798f75d9ce9bdf52ea17ad081,AcceptabilityJudgment,88,0,almandine-6,12,div%2Cp%2CContext: You seemed sincerely repentent for the questionable behavior.%2Cp%2CTarget: The elderly man insisted that you would finally redeem herself in the eyes of her family.
1455810342,df2a57d798f75d9ce9bdf52ea17ad081,AcceptabilityJudgment,88,0,almandine-6,12,NULL,3,NULL,7225
1455810342,df2a57d798f75d9ce9bdf52ea17ad081,AcceptabilityJudgment,249,0,filler-100,53,div%2Cp%2CContext: The neighboring city has some really excellent butchers.%2Cp%2CTarget: Joan didn't remember who the butcher who sold organic beef had hired to deliver his meat.
1455810342,df2a57d798f75d9ce9bdf52ea17ad081,AcceptabilityJudgment,249,0,filler-100,53,NULL,4,NULL,8133
1455810342,df2a57d798f75d9ce9bdf52ea17ad081,AcceptabilityJudgment,302,0,filler-110,106,div%2Cp%2CContext: Many literary critics were impressed that the beautiful poem had been written by an eleven year old.%2Cp%2CTarget: The prominent journal mentioned that it was a promising start to a young career.
1455810342,df2a57d798f75d9ce9bdf52ea17ad081,AcceptabilityJudgment,302,0,filler-110,106,NULL,6,NULL,8558
1455810342,df2a57d798f75d9ce9bdf52ea17ad081,AcceptabilityJudgment,132,0,almandine-2,20,div%2Cp%2CContext: One of the union reps adressed the issue of over-working student interns.%2Cp%2CTarget: The industrious schoolgirl said that Matthew usually allowed himself to take a break from archiving.
1455810342,df2a57d798f75d9ce9bdf52ea17ad081,AcceptabilityJudgment,132,0,almandine-2,20,NULL,5,NULL,8696
1455810342,df2a57d798f75d9ce9bdf52ea17ad081,AcceptabilityJudgment,263,0,filler-110,67,div%2Cp%2CContext: Thanks to a crushing social anxiety%2C you haven't had any luck trying to find a date lately.%2Cp%2CTarget: One girl admitted that you hadn't groomed yourself nearly well enough to be trying speed dating.
1455810342,df2a57d798f75d9ce9bdf52ea17ad081,AcceptabilityJudgment,263,0,filler-110,67,NULL,6,NULL,7543
1455810342,df2a57d798f75d9ce9bdf52ea17ad081,AcceptabilityJudgment,234,0,filler-100,38,div%2Cp%2CContext: At the hospital%2C there are many doctors who routinely work shifts in the ER.%2Cp%2CTarget: The administrator wondered if the doctor who manages the surgery wing had treated anyone in the ER.
1455810342,df2a57d798f75d9ce9bdf52ea17ad081,AcceptabilityJudgment,234,0,filler-100,38,NULL,6,NULL,6608
1455810342,df2a57d798f75d9ce9bdf52ea17ad081,AcceptabilityJudgment,53,0,almandine-1,7,div%2Cp%2CContext: A recent interview showed a few newscasters making disparaging remarks about fashion models.%2Cp%2CTarget: The gorgeous supermodel boasted that Hannah consistently underestimated herself when it came to giving public speeches.
1455810342,df2a57d798f75d9ce9bdf52ea17ad081,AcceptabilityJudgment,53,0,almandine-1,7,NULL,3,NULL,13144
1455810342,df2a57d798f75d9ce9bdf52ea17ad081,AcceptabilityJudgment,288,0,filler-110,92,div%2Cp%2CContext: You believed that Santa was real until you were sixteen years old.%2Cp%2CTarget: The other girls at school couldn't believe that you could be so naive.
1455810342,df2a57d798f75d9ce9bdf52ea17ad081,AcceptabilityJudgment,288,0,filler-110,92,NULL,7,NULL,6729
1455810342,df2a57d798f75d9ce9bdf52ea17ad081,AcceptabilityJudgment,258,0,filler-110,62,div%2Cp%2CContext: After the extremely dull meeting%2C you convinced some coworkers to go out for drinks.%2Cp%2CTarget: The office secretary said that you thoroughly embarrassed yourself at the bar.
1455810342,df2a57d798f75d9ce9bdf52ea17ad081,AcceptabilityJudgment,258,0,filler-110,62,NULL,6,NULL,6991
1455810342,df2a57d798f75d9ce9bdf52ea17ad081,AcceptabilityJudgment,124,0,almandine-6,18,div%2Cp%2CContext: You indicated that the new strategy wouldn't be very useful in a bid for reelection.%2Cp%2CTarget: The aging congressman argued that you completely underestimated herself during the long and grueling campaign.
1455810342,df2a57d798f75d9ce9bdf52ea17ad081,AcceptabilityJudgment,124,0,almandine-6,18,NULL,4,NULL,7827
1455810342,df2a57d798f75d9ce9bdf52ea17ad081,AcceptabilityJudgment,264,0,filler-110,68,div%2Cp%2CContext: At a consultation with a tax attorney%2C you complained about how high property taxes are.%2Cp%2CTarget: The accountant replied that you could save yourself a lot of money by diversifying your interests.
1455810342,df2a57d798f75d9ce9bdf52ea17ad081,AcceptabilityJudgment,264,0,filler-110,68,NULL,6,NULL,7488
1455810342,df2a57d798f75d9ce9bdf52ea17ad081,AcceptabilityJudgment,300,0,filler-110,104,div%2Cp%2CContext: During storytime%2C the kindergarten teacher told the children a fairytale about a witch and a princess.%2Cp%2CTarget: The worried mother complained that it might give her daughter nightmares.
1455810342,df2a57d798f75d9ce9bdf52ea17ad081,AcceptabilityJudgment,300,0,filler-110,104,NULL,7,NULL,6889
1455810342,df2a57d798f75d9ce9bdf52ea17ad081,AcceptabilityJudgment,225,0,almandine-5,35,div%2Cp%2CContext: You are known to have an uncompromising view on business ethics.%2Cp%2CTarget: The new executive revealed that you uncharitably blamed himself for all the compromises made on the way to the top.
1455810342,df2a57d798f75d9ce9bdf52ea17ad081,AcceptabilityJudgment,225,0,almandine-5,35,NULL,4,NULL,9427
1455810342,df2a57d798f75d9ce9bdf52ea17ad081,AcceptabilityJudgment,291,0,filler-110,95,div%2Cp%2CContext: As a member of the Free Masons%2C you always laugh at conspiracy theories.%2Cp%2CTarget: The president of the club insists that you should be more concerned with public perception.
1455810342,df2a57d798f75d9ce9bdf52ea17ad081,AcceptabilityJudgment,291,0,filler-110,95,NULL,6,NULL,6373
1455810342,df2a57d798f75d9ce9bdf52ea17ad081,AcceptabilityJudgment,252,0,filler-100,56,div%2Cp%2CContext: One hacker worked on her own to launch an attack on the government.%2Cp%2CTarget: The reporter wanted to know if the hacker%2C who coded the software%2C had attacked the NSA with a virus.
1455810342,df2a57d798f75d9ce9bdf52ea17ad081,AcceptabilityJudgment,252,0,filler-100,56,NULL,6,NULL,7444
1455810342,df2a57d798f75d9ce9bdf52ea17ad081,AcceptabilityJudgment,182,0,almandine-4,28,div%2Cp%2CContext: The new evidence was very persuasive in deciding the outcome of the trial.%2Cp%2CTarget: The serious newswoman reported that it fully convinced himself that the testimony was false and unreliable.
1455810342,df2a57d798f75d9ce9bdf52ea17ad081,AcceptabilityJudgment,182,0,almandine-4,28,NULL,3,NULL,8994
1455810342,df2a57d798f75d9ce9bdf52ea17ad081,AcceptabilityJudgment,241,0,filler-100,45,div%2Cp%2CContext: Some audience members were really being difficult during much of the show this evening.%2Cp%2CTarget: The singer didn't know who the audience member who laughed out loud was heckling during the show.
1455810342,df2a57d798f75d9ce9bdf52ea17ad081,AcceptabilityJudgment,241,0,filler-100,45,NULL,5,NULL,7875
1455810342,df2a57d798f75d9ce9bdf52ea17ad081,AcceptabilityJudgment,248,0,filler-100,52,div%2Cp%2CContext: There was one young fan of the author who was particularly enthusiastic about the new book.%2Cp%2CTarget: The author asked if the young fan%2C who organized the book-signing%2C had invited Mary to the event.
1455810342,df2a57d798f75d9ce9bdf52ea17ad081,AcceptabilityJudgment,248,0,filler-100,52,NULL,6,NULL,7392
1455810342,df2a57d798f75d9ce9bdf52ea17ad081,AcceptabilityJudgment,67,0,almandine-3,9,div%2Cp%2CContext: During the hearings%2C some controversial evidence shed new light on the case.%2Cp%2CTarget: The innocent secretary said that it definitely exonerated herself in the eyes of the court.
1455810342,df2a57d798f75d9ce9bdf52ea17ad081,AcceptabilityJudgment,67,0,almandine-3,9,NULL,7,NULL,6344
1455810342,df2a57d798f75d9ce9bdf52ea17ad081,AcceptabilityJudgment,236,0,filler-100,40,div%2Cp%2CContext: The star violinist in the orchestra can be very touchy.%2Cp%2CTarget: The conductor asked if the violinist%2C who was very upset%2C had talked to anyone before coming in.
1455810342,df2a57d798f75d9ce9bdf52ea17ad081,AcceptabilityJudgment,236,0,filler-100,40,NULL,6,NULL,5610
1455810342,df2a57d798f75d9ce9bdf52ea17ad081,AcceptabilityJudgment,238,0,filler-100,42,div%2Cp%2CContext: Some of the dancers really didn't seem to be focusing on practice this morning.%2Cp%2CTarget: The choreographer didn't know if the dancer who danced clumsily had run into anyone during practice.
1455810342,df2a57d798f75d9ce9bdf52ea17ad081,AcceptabilityJudgment,238,0,filler-100,42,NULL,5,NULL,8008
1455810342,df2a57d798f75d9ce9bdf52ea17ad081,AcceptabilityJudgment,146,0,almandine-4,22,div%2Cp%2CContext: A formal complaint mentioned an unpleasant incident on set yesterday.%2Cp%2CTarget: The beautiful supermodel said that it uncharitably described himself as cruel and abusive in the workplace.
1455810342,df2a57d798f75d9ce9bdf52ea17ad081,AcceptabilityJudgment,146,0,almandine-4,22,NULL,4,NULL,12704
1455810342,df2a57d798f75d9ce9bdf52ea17ad081,AcceptabilityJudgment,289,0,filler-110,93,div%2Cp%2CContext: While on vacation in Egypt%2C you stumbled across an ancient tomb full of treasures.%2Cp%2CTarget: The frightened tourguide worried that you had been cursed by your accidental discovery.
1455810342,df2a57d798f75d9ce9bdf52ea17ad081,AcceptabilityJudgment,289,0,filler-110,93,NULL,5,NULL,10872
1455810342,df2a57d798f75d9ce9bdf52ea17ad081,AcceptabilityJudgment,251,0,filler-100,55,div%2Cp%2CContext: Only one doctor was assigned to every patient when the ER was overrun.%2Cp%2CTarget: The nurse asked who the doctor%2C who treated the crash victim%2C had examined very thoroughly.
1455810342,df2a57d798f75d9ce9bdf52ea17ad081,AcceptabilityJudgment,251,0,filler-100,55,NULL,3,NULL,12200
1455810342,df2a57d798f75d9ce9bdf52ea17ad081,AcceptabilityJudgment,110,0,almandine-4,16,div%2Cp%2CContext: An incriminating photo caused a bit of a stir in the library.%2Cp%2CTarget: The shy schoolboy confessed that it had thoroughly embarrassed herself in the cafeteria during lunch.
1455810342,df2a57d798f75d9ce9bdf52ea17ad081,AcceptabilityJudgment,110,0,almandine-4,16,NULL,3,NULL,7861
1455810342,df2a57d798f75d9ce9bdf52ea17ad081,AcceptabilityJudgment,286,0,filler-110,90,div%2Cp%2CContext: At a baseball game last weekend%2C you caught a fly ball hit into the stands.%2Cp%2CTarget: The concession salesman was impressed that you hadn't hurt your hand in the attempt.
1455810342,df2a57d798f75d9ce9bdf52ea17ad081,AcceptabilityJudgment,286,0,filler-110,90,NULL,6,NULL,8375
1455810342,df2a57d798f75d9ce9bdf52ea17ad081,AcceptabilityJudgment,239,0,filler-100,43,div%2Cp%2CContext: The huge accident on the highway actually only injured one person.%2Cp%2CTarget: The cop wondered who the victim%2C who was recovering slowly%2C would blame for the accident.
1455810342,df2a57d798f75d9ce9bdf52ea17ad081,AcceptabilityJudgment,239,0,filler-100,43,NULL,6,NULL,5093
1455810342,df2a57d798f75d9ce9bdf52ea17ad081,AcceptabilityJudgment,117,0,almandine-5,17,div%2Cp%2CContext: You were extremely complimentary of the recently released classical music album.%2Cp%2CTarget: The graceful harpist said that you shamelessly promoted herself as a famous musician in the making.
1455810342,df2a57d798f75d9ce9bdf52ea17ad081,AcceptabilityJudgment,117,0,almandine-5,17,NULL,4,NULL,8194
1455810342,df2a57d798f75d9ce9bdf52ea17ad081,AcceptabilityJudgment,283,0,filler-110,87,div%2Cp%2CContext: The community center offers several night classes that you have taken advantage of.%2Cp%2CTarget: The excitable calligraphy teacher insisted that you have the best penmanship he has ever seen.
1455810342,df2a57d798f75d9ce9bdf52ea17ad081,AcceptabilityJudgment,283,0,filler-110,87,NULL,6,NULL,6415
1455810342,df2a57d798f75d9ce9bdf52ea17ad081,AcceptabilityJudgment,280,0,filler-110,84,div%2Cp%2CContext: Japanese inventors recently announced that a new robot can perform complex feats of gymnastics.%2Cp%2CTarget: An impressed reporter looked on while it flipped itself off the edge of a balcony and onto a delicate balance beam below.
1455810342,df2a57d798f75d9ce9bdf52ea17ad081,AcceptabilityJudgment,280,0,filler-110,84,NULL,6,NULL,10129
1455810342,df2a57d798f75d9ce9bdf52ea17ad081,AcceptabilityJudgment,125,0,almandine-1,19,div%2Cp%2CContext: The budding actor came up in a recent conversation about signing deals with movie labels.%2Cp%2CTarget: The impatient manager insisted that Michael had irreversibly committed himself to four years with the film studio.
1455810342,df2a57d798f75d9ce9bdf52ea17ad081,AcceptabilityJudgment,125,0,almandine-1,19,NULL,6,NULL,16381
1455810342,df2a57d798f75d9ce9bdf52ea17ad081,AcceptabilityJudgment,274,0,filler-110,78,div%2Cp%2CContext: A new talkshow is slated to make its debut on TV this fall.%2Cp%2CTarget: The radiohost complained that it has been shamelessly promoting itself on every channel for the last year.
1455810342,df2a57d798f75d9ce9bdf52ea17ad081,AcceptabilityJudgment,274,0,filler-110,78,NULL,5,NULL,7777
1455810342,df2a57d798f75d9ce9bdf52ea17ad081,AcceptabilityJudgment,266,0,filler-110,70,div%2Cp%2CContext: While on a fishing trip off the coast of Alaska%2C you caught an enormous salmon.%2Cp%2CTarget: The fishing guide asked if you wanted to ship yourself the frozen fish to enjoy at home.
1455810342,df2a57d798f75d9ce9bdf52ea17ad081,AcceptabilityJudgment,266,0,filler-110,70,NULL,6,NULL,5278
1455810342,df2a57d798f75d9ce9bdf52ea17ad081,AcceptabilityJudgment,38,0,almandine-4,4,div%2Cp%2CContext: In a highly contentious criminal case%2C the testimony was frequently misquoted.%2Cp%2CTarget: The male witness said that it completely misrepresented herself in the trial but the jury didn't buy it.
1455810342,df2a57d798f75d9ce9bdf52ea17ad081,AcceptabilityJudgment,38,0,almandine-4,4,NULL,2,NULL,16964
1455810342,df2a57d798f75d9ce9bdf52ea17ad081,AcceptabilityJudgment,246,0,filler-100,50,div%2Cp%2CContext: A couple of little boys were causing some problems for the other children at the playground.%2Cp%2CTarget: The little girl wondered if the boy who was ignoring her had played with anyone during recess.
1455810342,df2a57d798f75d9ce9bdf52ea17ad081,AcceptabilityJudgment,246,0,filler-100,50,NULL,5,NULL,7743
1455810342,df2a57d798f75d9ce9bdf52ea17ad081,AcceptabilityJudgment,247,0,filler-100,51,div%2Cp%2CContext: The newest senator is not known for having very high ethical standards.%2Cp%2CTarget: The lobbyist knew who the senator%2C who voted for higher taxes%2C had bribed during the election.
1455810342,df2a57d798f75d9ce9bdf52ea17ad081,AcceptabilityJudgment,247,0,filler-100,51,NULL,5,NULL,4597
1455810342,df2a57d798f75d9ce9bdf52ea17ad081,AcceptabilityJudgment,211,0,almandine-3,33,div%2Cp%2CContext: The highly-publicized restaurant review reported glowingly on expanding food options in the area.%2Cp%2CTarget: The irritable waiter mentioned that it obviously complimented himself for the excellent and expensive meal.
1455810342,df2a57d798f75d9ce9bdf52ea17ad081,AcceptabilityJudgment,211,0,almandine-3,33,NULL,4,NULL,10476
1455810342,df2a57d798f75d9ce9bdf52ea17ad081,AcceptabilityJudgment,245,0,filler-100,49,div%2Cp%2CContext: The company put several employees in charge of the hiring process.%2Cp%2CTarget: The applicant asked who the employee who conducted the interviews would hire if he could.
1455810342,df2a57d798f75d9ce9bdf52ea17ad081,AcceptabilityJudgment,245,0,filler-100,49,NULL,5,NULL,12008
1455810342,df2a57d798f75d9ce9bdf52ea17ad081,AcceptabilityJudgment,294,0,filler-110,98,div%2Cp%2CContext: The museum pamphlet seemed to indicate that the modern art exhibit was closed.%2Cp%2CTarget: The security guard said that it had been confusing patrons for years.
1455810342,df2a57d798f75d9ce9bdf52ea17ad081,AcceptabilityJudgment,294,0,filler-110,98,NULL,6,NULL,6226
1455810342,df2a57d798f75d9ce9bdf52ea17ad081,AcceptabilityJudgment,232,0,almandine-6,36,div%2Cp%2CContext: You came up in a conversation about promotion possibilities in the office.%2Cp%2CTarget: The exasperated secretary declared that you unfairly denied himself a chance at advancing in the company.
1455810342,df2a57d798f75d9ce9bdf52ea17ad081,AcceptabilityJudgment,232,0,almandine-6,36,NULL,4,NULL,7393
1455810342,df2a57d798f75d9ce9bdf52ea17ad081,AcceptabilityJudgment,257,0,filler-110,61,div%2Cp%2CContext: In a widely publicized television debate%2C you argued with several religious leaders about the reliability of scientific evidence.%2Cp%2CTarget: The evangelical pastor insisted that you clearly betrayed yourself with comments about the scientific method.
1455810342,df2a57d798f75d9ce9bdf52ea17ad081,AcceptabilityJudgment,257,0,filler-110,61,NULL,6,NULL,11307
1455810342,df2a57d798f75d9ce9bdf52ea17ad081,AcceptabilityJudgment,284,0,filler-110,88,div%2Cp%2CContext: Until quite recently%2C you hadn't realized that hyenas are actually more closely related to cats than to dogs.%2Cp%2CTarget: The condescending biologist claimed that you were the first person he had met who didn't know this.
1455810342,df2a57d798f75d9ce9bdf52ea17ad081,AcceptabilityJudgment,284,0,filler-110,88,NULL,7,NULL,7711
1455810342,df2a57d798f75d9ce9bdf52ea17ad081,AcceptabilityJudgment,17,0,almandine-1,1,div%2Cp%2CContext: In a recent media frenzy%2C many people said some unflattering things about Hollywood icons.%2Cp%2CTarget: The famous actress said that Jessica unfairly depicted herself as unfeeling and unaffected by public opinion.
1455810342,df2a57d798f75d9ce9bdf52ea17ad081,AcceptabilityJudgment,17,0,almandine-1,1,NULL,4,NULL,10374
1455810342,df2a57d798f75d9ce9bdf52ea17ad081,AcceptabilityJudgment,287,0,filler-110,91,div%2Cp%2CContext: At a casual cocktail party%2C you were forced to admit that you're terrible at charades.%2Cp%2CTarget: The gracious hostess insisted that you must be better than you were claiming.
1455810342,df2a57d798f75d9ce9bdf52ea17ad081,AcceptabilityJudgment,287,0,filler-110,91,NULL,7,NULL,6621
1455810342,df2a57d798f75d9ce9bdf52ea17ad081,AcceptabilityJudgment,253,0,filler-100,57,div%2Cp%2CContext: The principal was worried about a number of students in the class.%2Cp%2CTarget: The teacher asked who the student who was failing math could talk to for some help.
1455810342,df2a57d798f75d9ce9bdf52ea17ad081,AcceptabilityJudgment,253,0,filler-100,57,NULL,5,NULL,7511
1455810342,df2a57d798f75d9ce9bdf52ea17ad081,AcceptabilityJudgment,45,0,almandine-5,5,div%2Cp%2CContext: In what became a major scandal%2C you revealed a celebrity's intimate secrets.%2Cp%2CTarget: The aspiring actress complained that you cruelly portrayed herself as petty and vindictive.
1455810342,df2a57d798f75d9ce9bdf52ea17ad081,AcceptabilityJudgment,45,0,almandine-5,5,NULL,4,NULL,7337
1455810342,df2a57d798f75d9ce9bdf52ea17ad081,AcceptabilityJudgment,285,0,filler-110,89,div%2Cp%2CContext: Unlike many applicants for the job%2C you had carefully proofread your application before submitting it.%2Cp%2CTarget: The bossy secretary mentioned that you were the only person to properly use a semicolon.
1455810342,df2a57d798f75d9ce9bdf52ea17ad081,AcceptabilityJudgment,285,0,filler-110,89,NULL,7,NULL,7976
1455810342,df2a57d798f75d9ce9bdf52ea17ad081,AcceptabilityJudgment,276,0,filler-110,80,div%2Cp%2CContext: A fake news program ruffled a lot of feathers with a recent skit about famous politicians.%2Cp%2CTarget: The political pundit was outraged that it billed itself as a legitimate news source.
1455810342,df2a57d798f75d9ce9bdf52ea17ad081,AcceptabilityJudgment,276,0,filler-110,80,NULL,5,NULL,17416
1455810342,df2a57d798f75d9ce9bdf52ea17ad081,AcceptabilityJudgment,81,0,almandine-5,11,div%2Cp%2CContext: You suggested that the kitchen should hire someone new.%2Cp%2CTarget: The buxom waitress mentioned that you wholeheartedly recommended herself for the new position.
1455810342,df2a57d798f75d9ce9bdf52ea17ad081,AcceptabilityJudgment,81,0,almandine-5,11,NULL,3,NULL,5394
1455810342,df2a57d798f75d9ce9bdf52ea17ad081,AcceptabilityJudgment,297,0,filler-110,101,div%2Cp%2CContext: The mugshot showed a very prominent tattoo on the suspect's back.%2Cp%2CTarget:  The policeman hoped that it would help them track him down for arrest.
1455810342,df2a57d798f75d9ce9bdf52ea17ad081,AcceptabilityJudgment,297,0,filler-110,101,NULL,5,NULL,6761
1455810342,df2a57d798f75d9ce9bdf52ea17ad081,AcceptabilityJudgment,292,0,filler-110,96,div%2Cp%2CContext: From time to time you like to get away from the city and reconnect with nature.%2Cp%2CTarget: The grimy conservationist was convinced that you could be converted to his cause%2C despite your stance on federal regulation.
1455810342,df2a57d798f75d9ce9bdf52ea17ad081,AcceptabilityJudgment,292,0,filler-110,96,NULL,5,NULL,14786
1455810342,df2a57d798f75d9ce9bdf52ea17ad081,AcceptabilityJudgment,189,0,almandine-5,29,div%2Cp%2CContext: You held meetings with senators in DC.%2Cp%2CTarget: The corrupt senator insisted that you would definitely appoint himself as the new county commissioner before the election.
1455810342,df2a57d798f75d9ce9bdf52ea17ad081,AcceptabilityJudgment,189,0,almandine-5,29,NULL,4,NULL,6046
1455810342,df2a57d798f75d9ce9bdf52ea17ad081,AcceptabilityJudgment,265,0,filler-110,69,div%2Cp%2CContext: Since becoming a devout buddhist%2C you haven't eaten any meat.%2Cp%2CTarget: The local butcher doesn't understand why you would limit yourself to only eating vegetables.
1455810342,df2a57d798f75d9ce9bdf52ea17ad081,AcceptabilityJudgment,265,0,filler-110,69,NULL,6,NULL,5297
1455810342,df2a57d798f75d9ce9bdf52ea17ad081,AcceptabilityJudgment,295,0,filler-110,99,div%2Cp%2CContext: Thanks to a generous donation%2C the opera house was able to stay open for another season.%2Cp%2CTarget: The aged maestro worried that it had been struggling for years%2C and wouldn't last much longer.
1455810342,df2a57d798f75d9ce9bdf52ea17ad081,AcceptabilityJudgment,295,0,filler-110,99,NULL,4,NULL,10027
1455810342,df2a57d798f75d9ce9bdf52ea17ad081,AcceptabilityJudgment,197,0,almandine-1,31,div%2Cp%2CContext: One of the informants uncovered the possibility of police corruption.%2Cp%2CTarget: The undercover policeman confessed that Zachary had evidently recorded himself talking about the secret plot.
1455810342,df2a57d798f75d9ce9bdf52ea17ad081,AcceptabilityJudgment,197,0,almandine-1,31,NULL,6,NULL,7312
1455810342,df2a57d798f75d9ce9bdf52ea17ad081,AcceptabilityJudgment,281,0,filler-110,85,div%2Cp%2CContext: You went skating yesterday and fell on the ice.%2Cp%2CTarget: The ER doctor said that you were lucky to have not broken your leg.
1455810342,df2a57d798f75d9ce9bdf52ea17ad081,AcceptabilityJudgment,281,0,filler-110,85,NULL,7,NULL,3886
1455810342,df2a57d798f75d9ce9bdf52ea17ad081,AcceptabilityJudgment,296,0,filler-110,100,div%2Cp%2CContext: The catchy new song was repeatedly played on just about every radio station.%2Cp%2CTarget: The talkshow host complained that it got stuck in his head almost every day.
1455810342,df2a57d798f75d9ce9bdf52ea17ad081,AcceptabilityJudgment,296,0,filler-110,100,NULL,7,NULL,9235
1455810342,df2a57d798f75d9ce9bdf52ea17ad081,AcceptabilityJudgment,218,0,almandine-4,34,div%2Cp%2CContext: A self-help book encouraged gambling addicts to take up exercising to avoid temptation.%2Cp%2CTarget: The wealthy heiress said that it helpfully prevented himself from losing any more money at the casino.
1455810342,df2a57d798f75d9ce9bdf52ea17ad081,AcceptabilityJudgment,218,0,almandine-4,34,NULL,1,NULL,11942
1455810342,df2a57d798f75d9ce9bdf52ea17ad081,AcceptabilityJudgment,299,0,filler-110,103,div%2Cp%2CContext: The office memo scared everyone who was worried about possible downsizing.%2Cp%2CTarget: The flighty secretary admitted that it might contain information about who would be fired.
1455810342,df2a57d798f75d9ce9bdf52ea17ad081,AcceptabilityJudgment,299,0,filler-110,103,NULL,6,NULL,9126
1455810342,df2a57d798f75d9ce9bdf52ea17ad081,AcceptabilityJudgment,269,0,filler-110,73,div%2Cp%2CContext: Many critics were surprised that the novel so clearly referenced the author's troubled home life.%2Cp%2CTarget: The publicist insists that it clearly shows itself to be a phenomenal work of art.
1455810342,df2a57d798f75d9ce9bdf52ea17ad081,AcceptabilityJudgment,269,0,filler-110,73,NULL,5,NULL,8461
1455810342,df2a57d798f75d9ce9bdf52ea17ad081,AcceptabilityJudgment,204,0,almandine-2,32,div%2Cp%2CContext: A member of the city council was impressed with the police response to the dangerous confrontation.%2Cp%2CTarget: The popular policewoman reported that David had thoughtfully nominated himself for the prestigious community service award.
1455810342,df2a57d798f75d9ce9bdf52ea17ad081,AcceptabilityJudgment,204,0,almandine-2,32,NULL,5,NULL,8257
1455810342,df2a57d798f75d9ce9bdf52ea17ad081,AcceptabilityJudgment,250,0,filler-100,54,div%2Cp%2CContext: The local teenagers are known for being very cruel.%2Cp%2CTarget: Alex wondered if the teenager who was a clever prankster would target John for his next prank.
1455810342,df2a57d798f75d9ce9bdf52ea17ad081,AcceptabilityJudgment,250,0,filler-100,54,NULL,6,NULL,5614
1455810342,df2a57d798f75d9ce9bdf52ea17ad081,AcceptabilityJudgment,304,0,filler-110,108,div%2Cp%2CContext: The rose garden at the palace of Versailles is reportedly one of the most beautiful in the world.%2Cp%2CTarget: The wealthy heiress insisted that it would be the perfect spot for her wedding.
1455810342,df2a57d798f75d9ce9bdf52ea17ad081,AcceptabilityJudgment,304,0,filler-110,108,NULL,7,NULL,6623
1455810342,df2a57d798f75d9ce9bdf52ea17ad081,AcceptabilityJudgment,103,0,almandine-3,15,div%2Cp%2CContext: A book on camping was brought in to give advice on wilderness survival.%2Cp%2CTarget: The proud girl scout boasted that it easily taught herself how to build a fire using only two sticks and a rock.
1455810342,df2a57d798f75d9ce9bdf52ea17ad081,AcceptabilityJudgment,103,0,almandine-3,15,NULL,3,NULL,9058
# Columns below this comment are as follows:
# 1. Time results were received.
# 2. MD5 hash of participant's IP address.
# 3. Controller name.
# 4. Item number.
# 5. Element number.
# 6. Type.
# 7. Group.
# 8. Field name.
# 9. Field value.
1455810342,df2a57d798f75d9ce9bdf52ea17ad081,Form,5,0,exit,NULL,comments,
1455810342,df2a57d798f75d9ce9bdf52ea17ad081,Form,5,0,exit,NULL,priorExpt,yes
1455810342,df2a57d798f75d9ce9bdf52ea17ad081,Form,5,0,exit,NULL,priorRefl,no
1455810342,df2a57d798f75d9ce9bdf52ea17ad081,Form,5,0,exit,NULL,logLang,no
1455810342,df2a57d798f75d9ce9bdf52ea17ad081,Form,5,0,exit,NULL,logContrast,yes2
1455810342,df2a57d798f75d9ce9bdf52ea17ad081,Form,6,0,exit,NULL,randomfield,D7xxSdw9
1455810342,df2a57d798f75d9ce9bdf52ea17ad081,Form,6,0,exit,NULL,worker_id,A1RSJ45RXTREWN%0A
1455810342,df2a57d798f75d9ce9bdf52ea17ad081,Form,6,0,exit,NULL,identifier,D7xxSdw9
#
# Results on Thursday February 18 2016 15:52:37 UTC.
# USER AGENT: Mozilla/5.0 (Windows NT 6.1; WOW64) AppleWebKit/537.36 (KHTML, like Gecko) Chrome/48.0.2564.109 Safari/537.36
# Design number was non-random = 0
#
# Columns below this comment are as follows:
# 1. Time results were received.
# 2. MD5 hash of participant's IP address.
# 3. Controller name.
# 4. Item number.
# 5. Element number.
# 6. Type.
# 7. Group.
# 8. Field name.
# 9. Field value.
1455810758,95459e8ad70ecff18109d72473baeaef,Form,2,0,consent,NULL,workerID,
1455810758,95459e8ad70ecff18109d72473baeaef,Form,3,0,consent,NULL,consent,yes
1455810758,95459e8ad70ecff18109d72473baeaef,SSForm,4,0,consent,NULL,nLang,English
1455810758,95459e8ad70ecff18109d72473baeaef,SSForm,4,0,consent,NULL,pLang,English
1455810758,95459e8ad70ecff18109d72473baeaef,SSForm,4,0,consent,NULL,oLang,none
1455810758,95459e8ad70ecff18109d72473baeaef,SSForm,4,0,consent,NULL,dLang,English
1455810758,95459e8ad70ecff18109d72473baeaef,SSForm,4,0,consent,NULL,gender,female
1455810758,95459e8ad70ecff18109d72473baeaef,SSForm,4,0,consent,NULL,age,42
1455810758,95459e8ad70ecff18109d72473baeaef,SSForm,4,0,consent,NULL,state,OH
# The lines below this comment are in groups of 2.
# The formats of the lines in each of these groups are as follows:
#
# Line 1:
#     Col. 1: Time results were received.
#     Col. 2: MD5 hash of participant's IP address.
#     Col. 3: Controller name.
#     Col. 4: Item number.
#     Col. 5: Element number.
#     Col. 6: Type.
#     Col. 7: Group.
#     Col. 8: Sentence (or sentence MD5).
# Line 2:
#     Col. 1: Time results were received.
#     Col. 2: MD5 hash of participant's IP address.
#     Col. 3: Controller name.
#     Col. 4: Item number.
#     Col. 5: Element number.
#     Col. 6: Type.
#     Col. 7: Group.
#     Col. 8: Question (NULL if none).
#     Col. 9: Answer.
#     Col. 10: Whether or not answer was correct (NULL if N/A).
#     Col. 11: Time taken to answer.
1455810758,95459e8ad70ecff18109d72473baeaef,AcceptabilityJudgment,12,0,practice,NULL,div%2Cp%2CContext: It was Christmas time%2C and everyone was really excited.%2Cp%2CTarget: The kids decorated the ornaments onto the tree.
1455810758,95459e8ad70ecff18109d72473baeaef,AcceptabilityJudgment,12,0,practice,NULL,NULL,1,NULL,15924
1455810758,95459e8ad70ecff18109d72473baeaef,AcceptabilityJudgment,13,0,practice,NULL,div%2Cp%2CContext: John asked me yesterday who all was going to be coming over.%2Cp%2CTarget: I know that Bill and Mary were planning on attending the party last night.
1455810758,95459e8ad70ecff18109d72473baeaef,AcceptabilityJudgment,13,0,practice,NULL,NULL,7,NULL,9915
1455810758,95459e8ad70ecff18109d72473baeaef,AcceptabilityJudgment,14,0,practice,NULL,div%2Cp%2CContext: Mary is usually fairly skeptical of public officials.%2Cp%2CTarget: Which politician did she believe the scientist and?
1455810758,95459e8ad70ecff18109d72473baeaef,AcceptabilityJudgment,14,0,practice,NULL,NULL,1,NULL,10025
1455810758,95459e8ad70ecff18109d72473baeaef,AcceptabilityJudgment,15,0,practice,NULL,div%2Cp%2CContext: Unfortunately%2C Susy was a little bit out of the social loop.%2Cp%2CTarget: John doubted that she knew anything of what went on after work.
1455810758,95459e8ad70ecff18109d72473baeaef,AcceptabilityJudgment,15,0,practice,NULL,NULL,7,NULL,8859
1455810758,95459e8ad70ecff18109d72473baeaef,AcceptabilityJudgment,237,0,filler-100,41,div%2Cp%2CContext: This town has many very well-qualified contractors that you could hire.%2Cp%2CTarget: The homeowner asked who the contractor who fixed the roof would hire for the next job.
1455810758,95459e8ad70ecff18109d72473baeaef,AcceptabilityJudgment,237,0,filler-100,41,NULL,4,NULL,18196
1455810758,95459e8ad70ecff18109d72473baeaef,AcceptabilityJudgment,255,0,filler-100,59,div%2Cp%2CContext: The school has a notorious bully.%2Cp%2CTarget: Pauline definitely knows who the bully%2C who beat up George%2C was harassing this week.
1455810758,95459e8ad70ecff18109d72473baeaef,AcceptabilityJudgment,255,0,filler-100,59,NULL,4,NULL,11474
1455810758,95459e8ad70ecff18109d72473baeaef,AcceptabilityJudgment,124,0,almandine-6,18,div%2Cp%2CContext: You indicated that the new strategy wouldn't be very useful in a bid for reelection.%2Cp%2CTarget: The aging congressman argued that you completely underestimated herself during the long and grueling campaign.
1455810758,95459e8ad70ecff18109d72473baeaef,AcceptabilityJudgment,124,0,almandine-6,18,NULL,2,NULL,15936
1455810758,95459e8ad70ecff18109d72473baeaef,AcceptabilityJudgment,238,0,filler-100,42,div%2Cp%2CContext: Some of the dancers really didn't seem to be focusing on practice this morning.%2Cp%2CTarget: The choreographer didn't know if the dancer who danced clumsily had run into anyone during practice.
1455810758,95459e8ad70ecff18109d72473baeaef,AcceptabilityJudgment,238,0,filler-100,42,NULL,6,NULL,17736
1455810758,95459e8ad70ecff18109d72473baeaef,AcceptabilityJudgment,290,0,filler-110,94,div%2Cp%2CContext: You think it's important to be willing to try new foods.%2Cp%2CTarget: The snobby chef was impressed that you would eat anything he put in front of you.
1455810758,95459e8ad70ecff18109d72473baeaef,AcceptabilityJudgment,290,0,filler-110,94,NULL,7,NULL,8006
1455810758,95459e8ad70ecff18109d72473baeaef,AcceptabilityJudgment,81,0,almandine-5,11,div%2Cp%2CContext: You suggested that the kitchen should hire someone new.%2Cp%2CTarget: The buxom waitress mentioned that you wholeheartedly recommended herself for the new position.
1455810758,95459e8ad70ecff18109d72473baeaef,AcceptabilityJudgment,81,0,almandine-5,11,NULL,5,NULL,9939
1455810758,95459e8ad70ecff18109d72473baeaef,AcceptabilityJudgment,259,0,filler-110,63,div%2Cp%2CContext: In a recent half marathon in San Diego%2C you finished dead last.%2Cp%2CTarget: The emergency nurse insisted you hadn't emasculated yourself despite taking over eight hours to finish.
1455810758,95459e8ad70ecff18109d72473baeaef,AcceptabilityJudgment,259,0,filler-110,63,NULL,7,NULL,13440
1455810758,95459e8ad70ecff18109d72473baeaef,AcceptabilityJudgment,294,0,filler-110,98,div%2Cp%2CContext: The museum pamphlet seemed to indicate that the modern art exhibit was closed.%2Cp%2CTarget: The security guard said that it had been confusing patrons for years.
1455810758,95459e8ad70ecff18109d72473baeaef,AcceptabilityJudgment,294,0,filler-110,98,NULL,7,NULL,10910
1455810758,95459e8ad70ecff18109d72473baeaef,AcceptabilityJudgment,225,0,almandine-5,35,div%2Cp%2CContext: You are known to have an uncompromising view on business ethics.%2Cp%2CTarget: The new executive revealed that you uncharitably blamed himself for all the compromises made on the way to the top.
1455810758,95459e8ad70ecff18109d72473baeaef,AcceptabilityJudgment,225,0,almandine-5,35,NULL,3,NULL,12779
1455810758,95459e8ad70ecff18109d72473baeaef,AcceptabilityJudgment,270,0,filler-110,74,div%2Cp%2CContext: Most people are horrified that the tabloid printed those private pictures of celebrities.%2Cp%2CTarget: The respected reporter claims that it has disgraced itself as a media outlet.
1455810758,95459e8ad70ecff18109d72473baeaef,AcceptabilityJudgment,270,0,filler-110,74,NULL,7,NULL,14179
1455810758,95459e8ad70ecff18109d72473baeaef,AcceptabilityJudgment,285,0,filler-110,89,div%2Cp%2CContext: Unlike many applicants for the job%2C you had carefully proofread your application before submitting it.%2Cp%2CTarget: The bossy secretary mentioned that you were the only person to properly use a semicolon.
1455810758,95459e8ad70ecff18109d72473baeaef,AcceptabilityJudgment,285,0,filler-110,89,NULL,7,NULL,13710
1455810758,95459e8ad70ecff18109d72473baeaef,AcceptabilityJudgment,74,0,almandine-4,10,div%2Cp%2CContext: The patient's diary revealed that they had a crush on someone in the hospital.%2Cp%2CTarget: The flustered doctor complained that it embarrassingly called herself very attractive and made suggestive comments.
1455810758,95459e8ad70ecff18109d72473baeaef,AcceptabilityJudgment,74,0,almandine-4,10,NULL,2,NULL,11337
1455810758,95459e8ad70ecff18109d72473baeaef,AcceptabilityJudgment,254,0,filler-100,58,div%2Cp%2CContext: A couple of chatty new neighbors moved into the neighborhood recently.%2Cp%2CTarget: Billy forgot if the neighbor who moved from Indiana was dating Susan this time last year.
1455810758,95459e8ad70ecff18109d72473baeaef,AcceptabilityJudgment,254,0,filler-100,58,NULL,6,NULL,14119
1455810758,95459e8ad70ecff18109d72473baeaef,AcceptabilityJudgment,253,0,filler-100,57,div%2Cp%2CContext: The principal was worried about a number of students in the class.%2Cp%2CTarget: The teacher asked who the student who was failing math could talk to for some help.
1455810758,95459e8ad70ecff18109d72473baeaef,AcceptabilityJudgment,253,0,filler-100,57,NULL,1,NULL,11044
1455810758,95459e8ad70ecff18109d72473baeaef,AcceptabilityJudgment,132,0,almandine-2,20,div%2Cp%2CContext: One of the union reps adressed the issue of over-working student interns.%2Cp%2CTarget: The industrious schoolgirl said that Matthew usually allowed himself to take a break from archiving.
1455810758,95459e8ad70ecff18109d72473baeaef,AcceptabilityJudgment,132,0,almandine-2,20,NULL,7,NULL,16455
1455810758,95459e8ad70ecff18109d72473baeaef,AcceptabilityJudgment,302,0,filler-110,106,div%2Cp%2CContext: Many literary critics were impressed that the beautiful poem had been written by an eleven year old.%2Cp%2CTarget: The prominent journal mentioned that it was a promising start to a young career.
1455810758,95459e8ad70ecff18109d72473baeaef,AcceptabilityJudgment,302,0,filler-110,106,NULL,7,NULL,19986
1455810758,95459e8ad70ecff18109d72473baeaef,AcceptabilityJudgment,297,0,filler-110,101,div%2Cp%2CContext: The mugshot showed a very prominent tattoo on the suspect's back.%2Cp%2CTarget:  The policeman hoped that it would help them track him down for arrest.
1455810758,95459e8ad70ecff18109d72473baeaef,AcceptabilityJudgment,297,0,filler-110,101,NULL,7,NULL,11255
1455810758,95459e8ad70ecff18109d72473baeaef,AcceptabilityJudgment,67,0,almandine-3,9,div%2Cp%2CContext: During the hearings%2C some controversial evidence shed new light on the case.%2Cp%2CTarget: The innocent secretary said that it definitely exonerated herself in the eyes of the court.
1455810758,95459e8ad70ecff18109d72473baeaef,AcceptabilityJudgment,67,0,almandine-3,9,NULL,5,NULL,13614
1455810758,95459e8ad70ecff18109d72473baeaef,AcceptabilityJudgment,287,0,filler-110,91,div%2Cp%2CContext: At a casual cocktail party%2C you were forced to admit that you're terrible at charades.%2Cp%2CTarget: The gracious hostess insisted that you must be better than you were claiming.
1455810758,95459e8ad70ecff18109d72473baeaef,AcceptabilityJudgment,287,0,filler-110,91,NULL,7,NULL,9783
1455810758,95459e8ad70ecff18109d72473baeaef,AcceptabilityJudgment,272,0,filler-110,76,div%2Cp%2CContext: An internal memo detailing corporate malfeasance was recently released to the public.%2Cp%2CTarget: The congresswoman said that it spoke for itself as evidence of corruption on Wall Street.
1455810758,95459e8ad70ecff18109d72473baeaef,AcceptabilityJudgment,272,0,filler-110,76,NULL,7,NULL,10760
1455810758,95459e8ad70ecff18109d72473baeaef,AcceptabilityJudgment,17,0,almandine-1,1,div%2Cp%2CContext: In a recent media frenzy%2C many people said some unflattering things about Hollywood icons.%2Cp%2CTarget: The famous actress said that Jessica unfairly depicted herself as unfeeling and unaffected by public opinion.
1455810758,95459e8ad70ecff18109d72473baeaef,AcceptabilityJudgment,17,0,almandine-1,1,NULL,5,NULL,19318
1455810758,95459e8ad70ecff18109d72473baeaef,AcceptabilityJudgment,268,0,filler-110,72,div%2Cp%2CContext: You've never been to a protest or rally in your life.%2Cp%2CTarget: The FBI agent said that you cleared yourself of wrongdoing by being so thoroughly a-political.
1455810758,95459e8ad70ecff18109d72473baeaef,AcceptabilityJudgment,268,0,filler-110,72,NULL,1,NULL,11409
1455810758,95459e8ad70ecff18109d72473baeaef,AcceptabilityJudgment,295,0,filler-110,99,div%2Cp%2CContext: Thanks to a generous donation%2C the opera house was able to stay open for another season.%2Cp%2CTarget: The aged maestro worried that it had been struggling for years%2C and wouldn't last much longer.
1455810758,95459e8ad70ecff18109d72473baeaef,AcceptabilityJudgment,295,0,filler-110,99,NULL,7,NULL,9392
1455810758,95459e8ad70ecff18109d72473baeaef,AcceptabilityJudgment,232,0,almandine-6,36,div%2Cp%2CContext: You came up in a conversation about promotion possibilities in the office.%2Cp%2CTarget: The exasperated secretary declared that you unfairly denied himself a chance at advancing in the company.
1455810758,95459e8ad70ecff18109d72473baeaef,AcceptabilityJudgment,232,0,almandine-6,36,NULL,3,NULL,10612
1455810758,95459e8ad70ecff18109d72473baeaef,AcceptabilityJudgment,284,0,filler-110,88,div%2Cp%2CContext: Until quite recently%2C you hadn't realized that hyenas are actually more closely related to cats than to dogs.%2Cp%2CTarget: The condescending biologist claimed that you were the first person he had met who didn't know this.
1455810758,95459e8ad70ecff18109d72473baeaef,AcceptabilityJudgment,284,0,filler-110,88,NULL,7,NULL,14455
1455810758,95459e8ad70ecff18109d72473baeaef,AcceptabilityJudgment,252,0,filler-100,56,div%2Cp%2CContext: One hacker worked on her own to launch an attack on the government.%2Cp%2CTarget: The reporter wanted to know if the hacker%2C who coded the software%2C had attacked the NSA with a virus.
1455810758,95459e8ad70ecff18109d72473baeaef,AcceptabilityJudgment,252,0,filler-100,56,NULL,7,NULL,16159
1455810758,95459e8ad70ecff18109d72473baeaef,AcceptabilityJudgment,168,0,almandine-2,26,div%2Cp%2CContext: One of the key witnesses was called into question during the trial.%2Cp%2CTarget: The friendly receptionist admitted that Daniel apparently identified himself as a potential suspect in an ongoing investigation.
1455810758,95459e8ad70ecff18109d72473baeaef,AcceptabilityJudgment,168,0,almandine-2,26,NULL,7,NULL,11703
1455810758,95459e8ad70ecff18109d72473baeaef,AcceptabilityJudgment,304,0,filler-110,108,div%2Cp%2CContext: The rose garden at the palace of Versailles is reportedly one of the most beautiful in the world.%2Cp%2CTarget: The wealthy heiress insisted that it would be the perfect spot for her wedding.
1455810758,95459e8ad70ecff18109d72473baeaef,AcceptabilityJudgment,304,0,filler-110,108,NULL,7,NULL,10626
1455810758,95459e8ad70ecff18109d72473baeaef,AcceptabilityJudgment,273,0,filler-110,77,div%2Cp%2CContext: The small children were delighted that the storybook included many detailed illustrations.%2Cp%2CTarget: The nanny thought that it perhaps took itself a little too seriously%2C but didn't want to spoil the children's fun.
1455810758,95459e8ad70ecff18109d72473baeaef,AcceptabilityJudgment,273,0,filler-110,77,NULL,5,NULL,11162
1455810758,95459e8ad70ecff18109d72473baeaef,AcceptabilityJudgment,89,0,almandine-1,13,div%2Cp%2CContext: A few passersby gave evidence in the case of the hit-and-run.%2Cp%2CTarget: The conscientious nanny argued that Lauren clearly implicated herself in the accident that happened in the driveway.
1455810758,95459e8ad70ecff18109d72473baeaef,AcceptabilityJudgment,89,0,almandine-1,13,NULL,6,NULL,12747
1455810758,95459e8ad70ecff18109d72473baeaef,AcceptabilityJudgment,265,0,filler-110,69,div%2Cp%2CContext: Since becoming a devout buddhist%2C you haven't eaten any meat.%2Cp%2CTarget: The local butcher doesn't understand why you would limit yourself to only eating vegetables.
1455810758,95459e8ad70ecff18109d72473baeaef,AcceptabilityJudgment,265,0,filler-110,69,NULL,7,NULL,7960
1455810758,95459e8ad70ecff18109d72473baeaef,AcceptabilityJudgment,299,0,filler-110,103,div%2Cp%2CContext: The office memo scared everyone who was worried about possible downsizing.%2Cp%2CTarget: The flighty secretary admitted that it might contain information about who would be fired.
1455810758,95459e8ad70ecff18109d72473baeaef,AcceptabilityJudgment,299,0,filler-110,103,NULL,7,NULL,9647
1455810758,95459e8ad70ecff18109d72473baeaef,AcceptabilityJudgment,24,0,almandine-2,2,div%2Cp%2CContext: After the devastating earthquake%2C some rescue workers received a lot of media attention.%2Cp%2CTarget: The influential congressman said that Ashley definitely inspired herself to give back to the community more.
1455810758,95459e8ad70ecff18109d72473baeaef,AcceptabilityJudgment,24,0,almandine-2,2,NULL,3,NULL,10391
1455810758,95459e8ad70ecff18109d72473baeaef,AcceptabilityJudgment,292,0,filler-110,96,div%2Cp%2CContext: From time to time you like to get away from the city and reconnect with nature.%2Cp%2CTarget: The grimy conservationist was convinced that you could be converted to his cause%2C despite your stance on federal regulation.
1455810758,95459e8ad70ecff18109d72473baeaef,AcceptabilityJudgment,292,0,filler-110,96,NULL,7,NULL,13822
1455810758,95459e8ad70ecff18109d72473baeaef,AcceptabilityJudgment,239,0,filler-100,43,div%2Cp%2CContext: The huge accident on the highway actually only injured one person.%2Cp%2CTarget: The cop wondered who the victim%2C who was recovering slowly%2C would blame for the accident.
1455810758,95459e8ad70ecff18109d72473baeaef,AcceptabilityJudgment,239,0,filler-100,43,NULL,6,NULL,16631
1455810758,95459e8ad70ecff18109d72473baeaef,AcceptabilityJudgment,31,0,almandine-3,3,div%2Cp%2CContext: During a closed door meeting about hiring policy%2C a private report called into question recent decisions.%2Cp%2CTarget: The industrious councilwoman insisted that it frequently characterized herself as exceptionally helpful and diligent.
1455810758,95459e8ad70ecff18109d72473baeaef,AcceptabilityJudgment,31,0,almandine-3,3,NULL,2,NULL,11599
1455810758,95459e8ad70ecff18109d72473baeaef,AcceptabilityJudgment,250,0,filler-100,54,div%2Cp%2CContext: The local teenagers are known for being very cruel.%2Cp%2CTarget: Alex wondered if the teenager who was a clever prankster would target John for his next prank.
1455810758,95459e8ad70ecff18109d72473baeaef,AcceptabilityJudgment,250,0,filler-100,54,NULL,7,NULL,13711
1455810758,95459e8ad70ecff18109d72473baeaef,AcceptabilityJudgment,246,0,filler-100,50,div%2Cp%2CContext: A couple of little boys were causing some problems for the other children at the playground.%2Cp%2CTarget: The little girl wondered if the boy who was ignoring her had played with anyone during recess.
1455810758,95459e8ad70ecff18109d72473baeaef,AcceptabilityJudgment,246,0,filler-100,50,NULL,7,NULL,11055
1455810758,95459e8ad70ecff18109d72473baeaef,AcceptabilityJudgment,117,0,almandine-5,17,div%2Cp%2CContext: You were extremely complimentary of the recently released classical music album.%2Cp%2CTarget: The graceful harpist said that you shamelessly promoted herself as a famous musician in the making.
1455810758,95459e8ad70ecff18109d72473baeaef,AcceptabilityJudgment,117,0,almandine-5,17,NULL,2,NULL,10986
1455810758,95459e8ad70ecff18109d72473baeaef,AcceptabilityJudgment,264,0,filler-110,68,div%2Cp%2CContext: At a consultation with a tax attorney%2C you complained about how high property taxes are.%2Cp%2CTarget: The accountant replied that you could save yourself a lot of money by diversifying your interests.
1455810758,95459e8ad70ecff18109d72473baeaef,AcceptabilityJudgment,264,0,filler-110,68,NULL,7,NULL,105234
1455810758,95459e8ad70ecff18109d72473baeaef,AcceptabilityJudgment,263,0,filler-110,67,div%2Cp%2CContext: Thanks to a crushing social anxiety%2C you haven't had any luck trying to find a date lately.%2Cp%2CTarget: One girl admitted that you hadn't groomed yourself nearly well enough to be trying speed dating.
1455810758,95459e8ad70ecff18109d72473baeaef,AcceptabilityJudgment,263,0,filler-110,67,NULL,6,NULL,10390
1455810758,95459e8ad70ecff18109d72473baeaef,AcceptabilityJudgment,175,0,almandine-3,27,div%2Cp%2CContext: The moving documentary brought to light the serious ethical implications of over-breeding pets.%2Cp%2CTarget: The legendary rock star said that it definitely inspired himself to write a new song about this social injustice.
1455810758,95459e8ad70ecff18109d72473baeaef,AcceptabilityJudgment,175,0,almandine-3,27,NULL,2,NULL,10499
1455810758,95459e8ad70ecff18109d72473baeaef,AcceptabilityJudgment,251,0,filler-100,55,div%2Cp%2CContext: Only one doctor was assigned to every patient when the ER was overrun.%2Cp%2CTarget: The nurse asked who the doctor%2C who treated the crash victim%2C had examined very thoroughly.
1455810758,95459e8ad70ecff18109d72473baeaef,AcceptabilityJudgment,251,0,filler-100,55,NULL,5,NULL,7337
1455810758,95459e8ad70ecff18109d72473baeaef,AcceptabilityJudgment,258,0,filler-110,62,div%2Cp%2CContext: After the extremely dull meeting%2C you convinced some coworkers to go out for drinks.%2Cp%2CTarget: The office secretary said that you thoroughly embarrassed yourself at the bar.
1455810758,95459e8ad70ecff18109d72473baeaef,AcceptabilityJudgment,258,0,filler-110,62,NULL,7,NULL,7127
1455810758,95459e8ad70ecff18109d72473baeaef,AcceptabilityJudgment,161,0,almandine-1,25,div%2Cp%2CContext: One of New York's best-known critics was featured in a Bon Apetit expose on flourishing counterculture movements in Brooklyn.%2Cp%2CTarget: The charming butcher boasted that Brandon highly praised himself for a job skillfully and tastefully done.
1455810758,95459e8ad70ecff18109d72473baeaef,AcceptabilityJudgment,161,0,almandine-1,25,NULL,6,NULL,14010
1455810758,95459e8ad70ecff18109d72473baeaef,AcceptabilityJudgment,235,0,filler-100,39,div%2Cp%2CContext: After the big brawl%2C there was actually only one student who had gotten in trouble.%2Cp%2CTarget: The principal wanted to know who the student%2C who was expelled%2C had threatened with a knife.
1455810758,95459e8ad70ecff18109d72473baeaef,AcceptabilityJudgment,235,0,filler-100,39,NULL,6,NULL,9587
1455810758,95459e8ad70ecff18109d72473baeaef,AcceptabilityJudgment,275,0,filler-110,79,div%2Cp%2CContext: A podcast which parodies TED talks has been gaining popularity lately.%2Cp%2CTarget: One prominent CEO has claimed that it obviously invalidates itself by failing to deal with the very real issues discussed by TED speakers.
1455810758,95459e8ad70ecff18109d72473baeaef,AcceptabilityJudgment,275,0,filler-110,79,NULL,7,NULL,20723
1455810758,95459e8ad70ecff18109d72473baeaef,AcceptabilityJudgment,211,0,almandine-3,33,div%2Cp%2CContext: The highly-publicized restaurant review reported glowingly on expanding food options in the area.%2Cp%2CTarget: The irritable waiter mentioned that it obviously complimented himself for the excellent and expensive meal.
1455810758,95459e8ad70ecff18109d72473baeaef,AcceptabilityJudgment,211,0,almandine-3,33,NULL,2,NULL,11277
1455810758,95459e8ad70ecff18109d72473baeaef,AcceptabilityJudgment,271,0,filler-110,75,div%2Cp%2CContext: There was general outrage when a photograph which won several art competitions was revealed to have been photoshopped.%2Cp%2CTarget: One competitor has repeatedly insinuated that it misrepresented itself as an unaltered piece of photographic skill.
1455810758,95459e8ad70ecff18109d72473baeaef,AcceptabilityJudgment,271,0,filler-110,75,NULL,6,NULL,22959
1455810758,95459e8ad70ecff18109d72473baeaef,AcceptabilityJudgment,248,0,filler-100,52,div%2Cp%2CContext: There was one young fan of the author who was particularly enthusiastic about the new book.%2Cp%2CTarget: The author asked if the young fan%2C who organized the book-signing%2C had invited Mary to the event.
1455810758,95459e8ad70ecff18109d72473baeaef,AcceptabilityJudgment,248,0,filler-100,52,NULL,7,NULL,10826
1455810758,95459e8ad70ecff18109d72473baeaef,AcceptabilityJudgment,103,0,almandine-3,15,div%2Cp%2CContext: A book on camping was brought in to give advice on wilderness survival.%2Cp%2CTarget: The proud girl scout boasted that it easily taught herself how to build a fire using only two sticks and a rock.
1455810758,95459e8ad70ecff18109d72473baeaef,AcceptabilityJudgment,103,0,almandine-3,15,NULL,2,NULL,7544
1455810758,95459e8ad70ecff18109d72473baeaef,AcceptabilityJudgment,276,0,filler-110,80,div%2Cp%2CContext: A fake news program ruffled a lot of feathers with a recent skit about famous politicians.%2Cp%2CTarget: The political pundit was outraged that it billed itself as a legitimate news source.
1455810758,95459e8ad70ecff18109d72473baeaef,AcceptabilityJudgment,276,0,filler-110,80,NULL,7,NULL,110486
1455810758,95459e8ad70ecff18109d72473baeaef,AcceptabilityJudgment,279,0,filler-110,83,div%2Cp%2CContext: While still learning to climb%2C the baby orangutang fell from a dangerously high branch.%2Cp%2CTarget: The field biologist was very happy that it managed to catch itself on the way down.
1455810758,95459e8ad70ecff18109d72473baeaef,AcceptabilityJudgment,279,0,filler-110,83,NULL,6,NULL,9938
1455810758,95459e8ad70ecff18109d72473baeaef,AcceptabilityJudgment,204,0,almandine-2,32,div%2Cp%2CContext: A member of the city council was impressed with the police response to the dangerous confrontation.%2Cp%2CTarget: The popular policewoman reported that David had thoughtfully nominated himself for the prestigious community service award.
1455810758,95459e8ad70ecff18109d72473baeaef,AcceptabilityJudgment,204,0,almandine-2,32,NULL,6,NULL,17983
1455810758,95459e8ad70ecff18109d72473baeaef,AcceptabilityJudgment,274,0,filler-110,78,div%2Cp%2CContext: A new talkshow is slated to make its debut on TV this fall.%2Cp%2CTarget: The radiohost complained that it has been shamelessly promoting itself on every channel for the last year.
1455810758,95459e8ad70ecff18109d72473baeaef,AcceptabilityJudgment,274,0,filler-110,78,NULL,7,NULL,9451
1455810758,95459e8ad70ecff18109d72473baeaef,AcceptabilityJudgment,281,0,filler-110,85,div%2Cp%2CContext: You went skating yesterday and fell on the ice.%2Cp%2CTarget: The ER doctor said that you were lucky to have not broken your leg.
1455810758,95459e8ad70ecff18109d72473baeaef,AcceptabilityJudgment,281,0,filler-110,85,NULL,6,NULL,6595
1455810758,95459e8ad70ecff18109d72473baeaef,AcceptabilityJudgment,60,0,almandine-2,8,div%2Cp%2CContext: To prank the school staff%2C a few students circulated a rumor about an undercover celebrity on campus.%2Cp%2CTarget: The gullible janitor admitted that Elizabeth somehow managed to trick herself into believing that the story was true.
1455810758,95459e8ad70ecff18109d72473baeaef,AcceptabilityJudgment,60,0,almandine-2,8,NULL,2,NULL,11975
1455810758,95459e8ad70ecff18109d72473baeaef,AcceptabilityJudgment,241,0,filler-100,45,div%2Cp%2CContext: Some audience members were really being difficult during much of the show this evening.%2Cp%2CTarget: The singer didn't know who the audience member who laughed out loud was heckling during the show.
1455810758,95459e8ad70ecff18109d72473baeaef,AcceptabilityJudgment,241,0,filler-100,45,NULL,5,NULL,10219
1455810758,95459e8ad70ecff18109d72473baeaef,AcceptabilityJudgment,298,0,filler-110,102,div%2Cp%2CContext: In the middle of the severe storm%2C an emergency broadcast was sent out to warn about potential flooding.%2Cp%2CTarget: The weatherman worried that it wouldn't reach enough people in time.
1455810758,95459e8ad70ecff18109d72473baeaef,AcceptabilityJudgment,298,0,filler-110,102,NULL,7,NULL,7487
1455810758,95459e8ad70ecff18109d72473baeaef,AcceptabilityJudgment,88,0,almandine-6,12,div%2Cp%2CContext: You seemed sincerely repentent for the questionable behavior.%2Cp%2CTarget: The elderly man insisted that you would finally redeem herself in the eyes of her family.
1455810758,95459e8ad70ecff18109d72473baeaef,AcceptabilityJudgment,88,0,almandine-6,12,NULL,2,NULL,8386
1455810758,95459e8ad70ecff18109d72473baeaef,AcceptabilityJudgment,277,0,filler-110,81,div%2Cp%2CContext: The insurance investigator reported that a stovetop burner started the massive fire.%2Cp%2CTarget: The homeowner swears that it ignited itself despite mounting evidence to the contrary.
1455810758,95459e8ad70ecff18109d72473baeaef,AcceptabilityJudgment,277,0,filler-110,81,NULL,7,NULL,7830
1455810758,95459e8ad70ecff18109d72473baeaef,AcceptabilityJudgment,257,0,filler-110,61,div%2Cp%2CContext: In a widely publicized television debate%2C you argued with several religious leaders about the reliability of scientific evidence.%2Cp%2CTarget: The evangelical pastor insisted that you clearly betrayed yourself with comments about the scientific method.
1455810758,95459e8ad70ecff18109d72473baeaef,AcceptabilityJudgment,257,0,filler-110,61,NULL,4,NULL,10919
1455810758,95459e8ad70ecff18109d72473baeaef,AcceptabilityJudgment,52,0,almandine-6,6,div%2Cp%2CContext: Several newspapers reported that you recommended the financier for the job.%2Cp%2CTarget: The skilled businessman mentioned that you misleadingly described herself as hardworking and industrious during the interview.
1455810758,95459e8ad70ecff18109d72473baeaef,AcceptabilityJudgment,52,0,almandine-6,6,NULL,1,NULL,10064
1455810758,95459e8ad70ecff18109d72473baeaef,AcceptabilityJudgment,293,0,filler-110,97,div%2Cp%2CContext: In a dramatic turnaround%2C the soap opera brought in significantly more viewers than expected.%2Cp%2CTarget: The shocked analyst said that it would probably continue to draw viewers for another five seasons.
1455810758,95459e8ad70ecff18109d72473baeaef,AcceptabilityJudgment,293,0,filler-110,97,NULL,7,NULL,9848
1455810758,95459e8ad70ecff18109d72473baeaef,AcceptabilityJudgment,243,0,filler-100,47,div%2Cp%2CContext: One of the lawyers in the courtroom was called into the judge's personal chambers.%2Cp%2CTarget: The judge asked who the lawyer%2C who represented the defendant%2C was working with on the case.
1455810758,95459e8ad70ecff18109d72473baeaef,AcceptabilityJudgment,243,0,filler-100,47,NULL,6,NULL,9272
1455810758,95459e8ad70ecff18109d72473baeaef,AcceptabilityJudgment,160,0,almandine-6,24,div%2Cp%2CContext: You brought up several issues with mismanagement at the large financial firm.%2Cp%2CTarget: The diligent secretary argued that you unintentionally cast himself in a negative and slanderous light at the board meeting.
1455810758,95459e8ad70ecff18109d72473baeaef,AcceptabilityJudgment,160,0,almandine-6,24,NULL,1,NULL,10450
1455810758,95459e8ad70ecff18109d72473baeaef,AcceptabilityJudgment,247,0,filler-100,51,div%2Cp%2CContext: The newest senator is not known for having very high ethical standards.%2Cp%2CTarget: The lobbyist knew who the senator%2C who voted for higher taxes%2C had bribed during the election.
1455810758,95459e8ad70ecff18109d72473baeaef,AcceptabilityJudgment,247,0,filler-100,51,NULL,5,NULL,9300
1455810758,95459e8ad70ecff18109d72473baeaef,AcceptabilityJudgment,234,0,filler-100,38,div%2Cp%2CContext: At the hospital%2C there are many doctors who routinely work shifts in the ER.%2Cp%2CTarget: The administrator wondered if the doctor who manages the surgery wing had treated anyone in the ER.
1455810758,95459e8ad70ecff18109d72473baeaef,AcceptabilityJudgment,234,0,filler-100,38,NULL,7,NULL,8182
1455810758,95459e8ad70ecff18109d72473baeaef,AcceptabilityJudgment,153,0,almandine-5,23,div%2Cp%2CContext: You had been harping on the issue of immigration reform for a long while.%2Cp%2CTarget: The republican congressman complained that you maliciously misrepresented himself to young voters across the country.
1455810758,95459e8ad70ecff18109d72473baeaef,AcceptabilityJudgment,153,0,almandine-5,23,NULL,3,NULL,9492
1455810758,95459e8ad70ecff18109d72473baeaef,AcceptabilityJudgment,260,0,filler-110,64,div%2Cp%2CContext: At a concert last night%2C you was struggling to find a friend who had become separated from the group.%2Cp%2CTarget: The security guard noted that you had shouted yourself hoarse and offered to help.
1455810758,95459e8ad70ecff18109d72473baeaef,AcceptabilityJudgment,260,0,filler-110,64,NULL,4,NULL,9091
1455810758,95459e8ad70ecff18109d72473baeaef,AcceptabilityJudgment,245,0,filler-100,49,div%2Cp%2CContext: The company put several employees in charge of the hiring process.%2Cp%2CTarget: The applicant asked who the employee who conducted the interviews would hire if he could.
1455810758,95459e8ad70ecff18109d72473baeaef,AcceptabilityJudgment,245,0,filler-100,49,NULL,6,NULL,6528
1455810758,95459e8ad70ecff18109d72473baeaef,AcceptabilityJudgment,38,0,almandine-4,4,div%2Cp%2CContext: In a highly contentious criminal case%2C the testimony was frequently misquoted.%2Cp%2CTarget: The male witness said that it completely misrepresented herself in the trial but the jury didn't buy it.
1455810758,95459e8ad70ecff18109d72473baeaef,AcceptabilityJudgment,38,0,almandine-4,4,NULL,3,NULL,8938
1455810758,95459e8ad70ecff18109d72473baeaef,AcceptabilityJudgment,261,0,filler-110,65,div%2Cp%2CContext: Last night%2C you was kept up late writing college application essays.%2Cp%2CTarget: The guidance counsellor insists that you make yourself more appealing to mid-range institutions.
1455810758,95459e8ad70ecff18109d72473baeaef,AcceptabilityJudgment,261,0,filler-110,65,NULL,7,NULL,10584
1455810758,95459e8ad70ecff18109d72473baeaef,AcceptabilityJudgment,286,0,filler-110,90,div%2Cp%2CContext: At a baseball game last weekend%2C you caught a fly ball hit into the stands.%2Cp%2CTarget: The concession salesman was impressed that you hadn't hurt your hand in the attempt.
1455810758,95459e8ad70ecff18109d72473baeaef,AcceptabilityJudgment,286,0,filler-110,90,NULL,6,NULL,8662
1455810758,95459e8ad70ecff18109d72473baeaef,AcceptabilityJudgment,189,0,almandine-5,29,div%2Cp%2CContext: You held meetings with senators in DC.%2Cp%2CTarget: The corrupt senator insisted that you would definitely appoint himself as the new county commissioner before the election.
1455810758,95459e8ad70ecff18109d72473baeaef,AcceptabilityJudgment,189,0,almandine-5,29,NULL,1,NULL,7112
1455810758,95459e8ad70ecff18109d72473baeaef,AcceptabilityJudgment,296,0,filler-110,100,div%2Cp%2CContext: The catchy new song was repeatedly played on just about every radio station.%2Cp%2CTarget: The talkshow host complained that it got stuck in his head almost every day.
1455810758,95459e8ad70ecff18109d72473baeaef,AcceptabilityJudgment,296,0,filler-110,100,NULL,7,NULL,7571
1455810758,95459e8ad70ecff18109d72473baeaef,AcceptabilityJudgment,300,0,filler-110,104,div%2Cp%2CContext: During storytime%2C the kindergarten teacher told the children a fairytale about a witch and a princess.%2Cp%2CTarget: The worried mother complained that it might give her daughter nightmares.
1455810758,95459e8ad70ecff18109d72473baeaef,AcceptabilityJudgment,300,0,filler-110,104,NULL,7,NULL,8848
1455810758,95459e8ad70ecff18109d72473baeaef,AcceptabilityJudgment,96,0,almandine-2,14,div%2Cp%2CContext: One of the campus RAs caught some college students heading out for the evening.%2Cp%2CTarget: The frat boy mentioned that Courtney sneakily photographed herself on the way to the party.
1455810758,95459e8ad70ecff18109d72473baeaef,AcceptabilityJudgment,96,0,almandine-2,14,NULL,6,NULL,11136
1455810758,95459e8ad70ecff18109d72473baeaef,AcceptabilityJudgment,283,0,filler-110,87,div%2Cp%2CContext: The community center offers several night classes that you have taken advantage of.%2Cp%2CTarget: The excitable calligraphy teacher insisted that you have the best penmanship he has ever seen.
1455810758,95459e8ad70ecff18109d72473baeaef,AcceptabilityJudgment,283,0,filler-110,87,NULL,7,NULL,9986
1455810758,95459e8ad70ecff18109d72473baeaef,AcceptabilityJudgment,280,0,filler-110,84,div%2Cp%2CContext: Japanese inventors recently announced that a new robot can perform complex feats of gymnastics.%2Cp%2CTarget: An impressed reporter looked on while it flipped itself off the edge of a balcony and onto a delicate balance beam below.
1455810758,95459e8ad70ecff18109d72473baeaef,AcceptabilityJudgment,280,0,filler-110,84,NULL,7,NULL,12651
1455810758,95459e8ad70ecff18109d72473baeaef,AcceptabilityJudgment,139,0,almandine-3,21,div%2Cp%2CContext: The newspaper was concerned with the accuracy of some of the statements made to the public.%2Cp%2CTarget: The trustworthy policeman reported that it roundly criticized himself for the error during the trial.
1455810758,95459e8ad70ecff18109d72473baeaef,AcceptabilityJudgment,139,0,almandine-3,21,NULL,3,NULL,9475
1455810758,95459e8ad70ecff18109d72473baeaef,AcceptabilityJudgment,269,0,filler-110,73,div%2Cp%2CContext: Many critics were surprised that the novel so clearly referenced the author's troubled home life.%2Cp%2CTarget: The publicist insists that it clearly shows itself to be a phenomenal work of art.
1455810758,95459e8ad70ecff18109d72473baeaef,AcceptabilityJudgment,269,0,filler-110,73,NULL,7,NULL,9784
1455810758,95459e8ad70ecff18109d72473baeaef,AcceptabilityJudgment,242,0,filler-100,46,div%2Cp%2CContext: Some of the businessmen were very vocal about their politics.%2Cp%2CTarget: The oilman wondered if the businessman who hated fossil fuels had fired someone from his company.
1455810758,95459e8ad70ecff18109d72473baeaef,AcceptabilityJudgment,242,0,filler-100,46,NULL,7,NULL,8532
1455810758,95459e8ad70ecff18109d72473baeaef,AcceptabilityJudgment,53,0,almandine-1,7,div%2Cp%2CContext: A recent interview showed a few newscasters making disparaging remarks about fashion models.%2Cp%2CTarget: The gorgeous supermodel boasted that Hannah consistently underestimated herself when it came to giving public speeches.
1455810758,95459e8ad70ecff18109d72473baeaef,AcceptabilityJudgment,53,0,almandine-1,7,NULL,7,NULL,10719
1455810758,95459e8ad70ecff18109d72473baeaef,AcceptabilityJudgment,244,0,filler-100,48,div%2Cp%2CContext: A gardener was doing some shopping at Home Depot today.%2Cp%2CTarget: The contractor wondered if the gardener%2C who loves tulips%2C had met anyone at the nursery.
1455810758,95459e8ad70ecff18109d72473baeaef,AcceptabilityJudgment,244,0,filler-100,48,NULL,7,NULL,7451
1455810758,95459e8ad70ecff18109d72473baeaef,AcceptabilityJudgment,262,0,filler-110,66,div%2Cp%2CContext: In a job interview for a conservative law firm%2C you made the mistake of talking about your ties to the communist party.%2Cp%2CTarget: The officious interviewer disliked that you aligned yourself so closely with such left-leaning policies.
1455810758,95459e8ad70ecff18109d72473baeaef,AcceptabilityJudgment,262,0,filler-110,66,NULL,7,NULL,12963
1455810758,95459e8ad70ecff18109d72473baeaef,AcceptabilityJudgment,218,0,almandine-4,34,div%2Cp%2CContext: A self-help book encouraged gambling addicts to take up exercising to avoid temptation.%2Cp%2CTarget: The wealthy heiress said that it helpfully prevented himself from losing any more money at the casino.
1455810758,95459e8ad70ecff18109d72473baeaef,AcceptabilityJudgment,218,0,almandine-4,34,NULL,3,NULL,9818
1455810758,95459e8ad70ecff18109d72473baeaef,AcceptabilityJudgment,289,0,filler-110,93,div%2Cp%2CContext: While on vacation in Egypt%2C you stumbled across an ancient tomb full of treasures.%2Cp%2CTarget: The frightened tourguide worried that you had been cursed by your accidental discovery.
1455810758,95459e8ad70ecff18109d72473baeaef,AcceptabilityJudgment,289,0,filler-110,93,NULL,7,NULL,9111
1455810758,95459e8ad70ecff18109d72473baeaef,AcceptabilityJudgment,282,0,filler-110,86,div%2Cp%2CContext: Last week the bookstore you frequently visit was having a huge sale on new-release hardcovers.%2Cp%2CTarget: The cashier mentioned that you bought more books than anyone else.
1455810758,95459e8ad70ecff18109d72473baeaef,AcceptabilityJudgment,282,0,filler-110,86,NULL,7,NULL,8339
1455810758,95459e8ad70ecff18109d72473baeaef,AcceptabilityJudgment,110,0,almandine-4,16,div%2Cp%2CContext: An incriminating photo caused a bit of a stir in the library.%2Cp%2CTarget: The shy schoolboy confessed that it had thoroughly embarrassed herself in the cafeteria during lunch.
1455810758,95459e8ad70ecff18109d72473baeaef,AcceptabilityJudgment,110,0,almandine-4,16,NULL,1,NULL,8407
1455810758,95459e8ad70ecff18109d72473baeaef,AcceptabilityJudgment,240,0,filler-100,44,div%2Cp%2CContext: The local TV station has a very well-known and respected reporter.%2Cp%2CTarget: I couldn't remember if the reporter%2C who does the morning news%2C had mentioned me in the big story.
1455810758,95459e8ad70ecff18109d72473baeaef,AcceptabilityJudgment,240,0,filler-100,44,NULL,7,NULL,8649
1455810758,95459e8ad70ecff18109d72473baeaef,AcceptabilityJudgment,256,0,filler-100,60,div%2Cp%2CContext: One customer in the cafe seemed to spend all day there.%2Cp%2CTarget: The barista wondered if the customer%2C who ordered a decaf latte%2C was meeting someone in the cafe.
1455810758,95459e8ad70ecff18109d72473baeaef,AcceptabilityJudgment,256,0,filler-100,60,NULL,7,NULL,8332
1455810758,95459e8ad70ecff18109d72473baeaef,AcceptabilityJudgment,125,0,almandine-1,19,div%2Cp%2CContext: The budding actor came up in a recent conversation about signing deals with movie labels.%2Cp%2CTarget: The impatient manager insisted that Michael had irreversibly committed himself to four years with the film studio.
1455810758,95459e8ad70ecff18109d72473baeaef,AcceptabilityJudgment,125,0,almandine-1,19,NULL,7,NULL,10695
1455810758,95459e8ad70ecff18109d72473baeaef,AcceptabilityJudgment,303,0,filler-110,107,div%2Cp%2CContext: Every year tourists visit the magnificent fountain to appreciate its beauty.%2Cp%2CTarget: The custodian complained that it always gets clogged with the coins they throw in.
1455810758,95459e8ad70ecff18109d72473baeaef,AcceptabilityJudgment,303,0,filler-110,107,NULL,7,NULL,9010
1455810758,95459e8ad70ecff18109d72473baeaef,AcceptabilityJudgment,288,0,filler-110,92,div%2Cp%2CContext: You believed that Santa was real until you were sixteen years old.%2Cp%2CTarget: The other girls at school couldn't believe that you could be so naive.
1455810758,95459e8ad70ecff18109d72473baeaef,AcceptabilityJudgment,288,0,filler-110,92,NULL,7,NULL,6967
1455810758,95459e8ad70ecff18109d72473baeaef,AcceptabilityJudgment,182,0,almandine-4,28,div%2Cp%2CContext: The new evidence was very persuasive in deciding the outcome of the trial.%2Cp%2CTarget: The serious newswoman reported that it fully convinced himself that the testimony was false and unreliable.
1455810758,95459e8ad70ecff18109d72473baeaef,AcceptabilityJudgment,182,0,almandine-4,28,NULL,2,NULL,8740
1455810758,95459e8ad70ecff18109d72473baeaef,AcceptabilityJudgment,236,0,filler-100,40,div%2Cp%2CContext: The star violinist in the orchestra can be very touchy.%2Cp%2CTarget: The conductor asked if the violinist%2C who was very upset%2C had talked to anyone before coming in.
1455810758,95459e8ad70ecff18109d72473baeaef,AcceptabilityJudgment,236,0,filler-100,40,NULL,7,NULL,8083
1455810758,95459e8ad70ecff18109d72473baeaef,AcceptabilityJudgment,278,0,filler-110,82,div%2Cp%2CContext: Before the long car trip%2C the dog walker tried to get the puppy to play a lot in the yard.%2Cp%2CTarget: The dog's owner hoped it would tire itself out before they had to drive across the country.
1455810758,95459e8ad70ecff18109d72473baeaef,AcceptabilityJudgment,278,0,filler-110,82,NULL,7,NULL,8710
1455810758,95459e8ad70ecff18109d72473baeaef,AcceptabilityJudgment,146,0,almandine-4,22,div%2Cp%2CContext: A formal complaint mentioned an unpleasant incident on set yesterday.%2Cp%2CTarget: The beautiful supermodel said that it uncharitably described himself as cruel and abusive in the workplace.
1455810758,95459e8ad70ecff18109d72473baeaef,AcceptabilityJudgment,146,0,almandine-4,22,NULL,1,NULL,12759
1455810758,95459e8ad70ecff18109d72473baeaef,AcceptabilityJudgment,267,0,filler-110,71,div%2Cp%2CContext: Unlike many people%2C you don't enjoy scary rides at amusement parks.%2Cp%2CTarget: The concession stand employee agreed that you should confine yourself to eating popsicles all day instead.
1455810758,95459e8ad70ecff18109d72473baeaef,AcceptabilityJudgment,267,0,filler-110,71,NULL,7,NULL,9807
1455810758,95459e8ad70ecff18109d72473baeaef,AcceptabilityJudgment,301,0,filler-110,105,div%2Cp%2CContext: The sappy movie made everyone in the theater cry by the time the credits rolled.%2Cp%2CTarget: The popcorn vendor said that it had inspired some couples to propose right in the middle of the lobby.
1455810758,95459e8ad70ecff18109d72473baeaef,AcceptabilityJudgment,301,0,filler-110,105,NULL,7,NULL,9452
1455810758,95459e8ad70ecff18109d72473baeaef,AcceptabilityJudgment,196,0,almandine-6,30,div%2Cp%2CContext: You weighed in with thoughts about corporate greed.%2Cp%2CTarget: The arrogant businesswoman said that you had apparently characterized himself as greedy but successful.
1455810758,95459e8ad70ecff18109d72473baeaef,AcceptabilityJudgment,196,0,almandine-6,30,NULL,1,NULL,9259
1455810758,95459e8ad70ecff18109d72473baeaef,AcceptabilityJudgment,233,0,filler-100,37,div%2Cp%2CContext: A lot of really interesting customers came into the butcher shop today.%2Cp%2CTarget: The butcher asked who the customer who bought Italian sausage had invited to dinner tonight.
1455810758,95459e8ad70ecff18109d72473baeaef,AcceptabilityJudgment,233,0,filler-100,37,NULL,6,NULL,8781
1455810758,95459e8ad70ecff18109d72473baeaef,AcceptabilityJudgment,249,0,filler-100,53,div%2Cp%2CContext: The neighboring city has some really excellent butchers.%2Cp%2CTarget: Joan didn't remember who the butcher who sold organic beef had hired to deliver his meat.
1455810758,95459e8ad70ecff18109d72473baeaef,AcceptabilityJudgment,249,0,filler-100,53,NULL,6,NULL,9214
1455810758,95459e8ad70ecff18109d72473baeaef,AcceptabilityJudgment,197,0,almandine-1,31,div%2Cp%2CContext: One of the informants uncovered the possibility of police corruption.%2Cp%2CTarget: The undercover policeman confessed that Zachary had evidently recorded himself talking about the secret plot.
1455810758,95459e8ad70ecff18109d72473baeaef,AcceptabilityJudgment,197,0,almandine-1,31,NULL,7,NULL,7519
1455810758,95459e8ad70ecff18109d72473baeaef,AcceptabilityJudgment,291,0,filler-110,95,div%2Cp%2CContext: As a member of the Free Masons%2C you always laugh at conspiracy theories.%2Cp%2CTarget: The president of the club insists that you should be more concerned with public perception.
1455810758,95459e8ad70ecff18109d72473baeaef,AcceptabilityJudgment,291,0,filler-110,95,NULL,7,NULL,7170
1455810758,95459e8ad70ecff18109d72473baeaef,AcceptabilityJudgment,266,0,filler-110,70,div%2Cp%2CContext: While on a fishing trip off the coast of Alaska%2C you caught an enormous salmon.%2Cp%2CTarget: The fishing guide asked if you wanted to ship yourself the frozen fish to enjoy at home.
1455810758,95459e8ad70ecff18109d72473baeaef,AcceptabilityJudgment,266,0,filler-110,70,NULL,5,NULL,9852
1455810758,95459e8ad70ecff18109d72473baeaef,AcceptabilityJudgment,45,0,almandine-5,5,div%2Cp%2CContext: In what became a major scandal%2C you revealed a celebrity's intimate secrets.%2Cp%2CTarget: The aspiring actress complained that you cruelly portrayed herself as petty and vindictive.
1455810758,95459e8ad70ecff18109d72473baeaef,AcceptabilityJudgment,45,0,almandine-5,5,NULL,2,NULL,7858
# Columns below this comment are as follows:
# 1. Time results were received.
# 2. MD5 hash of participant's IP address.
# 3. Controller name.
# 4. Item number.
# 5. Element number.
# 6. Type.
# 7. Group.
# 8. Field name.
# 9. Field value.
1455810758,95459e8ad70ecff18109d72473baeaef,Form,5,0,exit,NULL,comments,
1455810758,95459e8ad70ecff18109d72473baeaef,Form,5,0,exit,NULL,priorExpt,yes
1455810758,95459e8ad70ecff18109d72473baeaef,Form,5,0,exit,NULL,priorRefl,no
1455810758,95459e8ad70ecff18109d72473baeaef,Form,5,0,exit,NULL,logLang,no
1455810758,95459e8ad70ecff18109d72473baeaef,Form,5,0,exit,NULL,logContrast,no
1455810758,95459e8ad70ecff18109d72473baeaef,Form,6,0,exit,NULL,randomfield,LrJH6CqB
1455810758,95459e8ad70ecff18109d72473baeaef,Form,6,0,exit,NULL,worker_id,A1SQHFMI1YTPT6
1455810758,95459e8ad70ecff18109d72473baeaef,Form,6,0,exit,NULL,identifier,LrJH6CqB
#
# Results on Thursday February 18 2016 15:52:54 UTC.
# USER AGENT: Mozilla/5.0 (Windows NT 6.1; WOW64; rv:44.0) Gecko/20100101 Firefox/44.0
# Design number was non-random = 2
#
# Columns below this comment are as follows:
# 1. Time results were received.
# 2. MD5 hash of participant's IP address.
# 3. Controller name.
# 4. Item number.
# 5. Element number.
# 6. Type.
# 7. Group.
# 8. Field name.
# 9. Field value.
1455810775,ea7052227dd792621ab1757f88e15173,Form,2,0,consent,NULL,workerID,
1455810775,ea7052227dd792621ab1757f88e15173,Form,3,0,consent,NULL,consent,yes
1455810775,ea7052227dd792621ab1757f88e15173,SSForm,4,0,consent,NULL,nLang,English
1455810775,ea7052227dd792621ab1757f88e15173,SSForm,4,0,consent,NULL,pLang,English
1455810775,ea7052227dd792621ab1757f88e15173,SSForm,4,0,consent,NULL,oLang,English
1455810775,ea7052227dd792621ab1757f88e15173,SSForm,4,0,consent,NULL,dLang,English
1455810775,ea7052227dd792621ab1757f88e15173,SSForm,4,0,consent,NULL,gender,female
1455810775,ea7052227dd792621ab1757f88e15173,SSForm,4,0,consent,NULL,age,28
1455810775,ea7052227dd792621ab1757f88e15173,SSForm,4,0,consent,NULL,state,TX
# The lines below this comment are in groups of 2.
# The formats of the lines in each of these groups are as follows:
#
# Line 1:
#     Col. 1: Time results were received.
#     Col. 2: MD5 hash of participant's IP address.
#     Col. 3: Controller name.
#     Col. 4: Item number.
#     Col. 5: Element number.
#     Col. 6: Type.
#     Col. 7: Group.
#     Col. 8: Sentence (or sentence MD5).
# Line 2:
#     Col. 1: Time results were received.
#     Col. 2: MD5 hash of participant's IP address.
#     Col. 3: Controller name.
#     Col. 4: Item number.
#     Col. 5: Element number.
#     Col. 6: Type.
#     Col. 7: Group.
#     Col. 8: Question (NULL if none).
#     Col. 9: Answer.
#     Col. 10: Whether or not answer was correct (NULL if N/A).
#     Col. 11: Time taken to answer.
1455810775,ea7052227dd792621ab1757f88e15173,AcceptabilityJudgment,12,0,practice,NULL,div%2Cp%2CContext: It was Christmas time%2C and everyone was really excited.%2Cp%2CTarget: The kids decorated the ornaments onto the tree.
1455810775,ea7052227dd792621ab1757f88e15173,AcceptabilityJudgment,12,0,practice,NULL,NULL,5,NULL,16064
1455810775,ea7052227dd792621ab1757f88e15173,AcceptabilityJudgment,13,0,practice,NULL,div%2Cp%2CContext: John asked me yesterday who all was going to be coming over.%2Cp%2CTarget: I know that Bill and Mary were planning on attending the party last night.
1455810775,ea7052227dd792621ab1757f88e15173,AcceptabilityJudgment,13,0,practice,NULL,NULL,7,NULL,6992
1455810775,ea7052227dd792621ab1757f88e15173,AcceptabilityJudgment,14,0,practice,NULL,div%2Cp%2CContext: Mary is usually fairly skeptical of public officials.%2Cp%2CTarget: Which politician did she believe the scientist and?
1455810775,ea7052227dd792621ab1757f88e15173,AcceptabilityJudgment,14,0,practice,NULL,NULL,1,NULL,7203
1455810775,ea7052227dd792621ab1757f88e15173,AcceptabilityJudgment,15,0,practice,NULL,div%2Cp%2CContext: Unfortunately%2C Susy was a little bit out of the social loop.%2Cp%2CTarget: John doubted that she knew anything of what went on after work.
1455810775,ea7052227dd792621ab1757f88e15173,AcceptabilityJudgment,15,0,practice,NULL,NULL,7,NULL,8526
1455810775,ea7052227dd792621ab1757f88e15173,AcceptabilityJudgment,270,0,filler-110,74,div%2Cp%2CContext: Most people are horrified that the tabloid printed those private pictures of celebrities.%2Cp%2CTarget: The respected reporter claims that it has disgraced itself as a media outlet.
1455810775,ea7052227dd792621ab1757f88e15173,AcceptabilityJudgment,270,0,filler-110,74,NULL,5,NULL,6217
1455810775,ea7052227dd792621ab1757f88e15173,AcceptabilityJudgment,91,0,almandine-3,13,div%2Cp%2CContext: Video surveillance gave evidence in the case of the hit-and-run.%2Cp%2CTarget: The conscientious nanny argued that it clearly implicated herself in the accident that happened in the driveway.
1455810775,ea7052227dd792621ab1757f88e15173,AcceptabilityJudgment,91,0,almandine-3,13,NULL,6,NULL,21607
1455810775,ea7052227dd792621ab1757f88e15173,AcceptabilityJudgment,267,0,filler-110,71,div%2Cp%2CContext: Unlike many people%2C you don't enjoy scary rides at amusement parks.%2Cp%2CTarget: The concession stand employee agreed that you should confine yourself to eating popsicles all day instead.
1455810775,ea7052227dd792621ab1757f88e15173,AcceptabilityJudgment,267,0,filler-110,71,NULL,6,NULL,7313
1455810775,ea7052227dd792621ab1757f88e15173,AcceptabilityJudgment,278,0,filler-110,82,div%2Cp%2CContext: Before the long car trip%2C the dog walker tried to get the puppy to play a lot in the yard.%2Cp%2CTarget: The dog's owner hoped it would tire itself out before they had to drive across the country.
