#
# Results on Wednesday December 07 2016 14:48:50 UTC.
# USER AGENT: Mozilla/5.0 (Windows NT 6.1; WOW64; rv:50.0) Gecko/20100101 Firefox/50.0
# Design number was non-random = 0
#
# Columns below this comment are as follows:
# 1. Time results were received.
# 2. MD5 hash of participant's IP address.
# 3. Controller name.
# 4. Item number.
# 5. Element number.
# 6. Type.
# 7. Group.
# 8. Field name.
# 9. Field value.
1481122131,12c4409aa1421b746a992dd3f5cc7c65,Form,2,0,consent,NULL,workerID,
1481122131,12c4409aa1421b746a992dd3f5cc7c65,SSForm,4,0,consent,NULL,nLang,English
1481122131,12c4409aa1421b746a992dd3f5cc7c65,SSForm,4,0,consent,NULL,pLang,English
1481122131,12c4409aa1421b746a992dd3f5cc7c65,SSForm,4,0,consent,NULL,oLang,French 
1481122131,12c4409aa1421b746a992dd3f5cc7c65,SSForm,4,0,consent,NULL,dLang,English
1481122131,12c4409aa1421b746a992dd3f5cc7c65,SSForm,4,0,consent,NULL,gender,male
1481122131,12c4409aa1421b746a992dd3f5cc7c65,SSForm,4,0,consent,NULL,age,38
1481122131,12c4409aa1421b746a992dd3f5cc7c65,SSForm,4,0,consent,NULL,state,NY
# The lines below this comment are in groups of 2.
# The formats of the lines in each of these groups are as follows:
#
# Line 1:
#     Col. 1: Time results were received.
#     Col. 2: MD5 hash of participant's IP address.
#     Col. 3: Controller name.
#     Col. 4: Item number.
#     Col. 5: Element number.
#     Col. 6: Type.
#     Col. 7: Group.
#     Col. 8: Sentence (or sentence MD5).
# Line 2:
#     Col. 1: Time results were received.
#     Col. 2: MD5 hash of participant's IP address.
#     Col. 3: Controller name.
#     Col. 4: Item number.
#     Col. 5: Element number.
#     Col. 6: Type.
#     Col. 7: Group.
#     Col. 8: Question (NULL if none).
#     Col. 9: Answer.
#     Col. 10: Whether or not answer was correct (NULL if N/A).
#     Col. 11: Time taken to answer.
1481122131,12c4409aa1421b746a992dd3f5cc7c65,AcceptabilityJudgment,13,0,practice,NULL,div%2Cp%2CContext: It was Christmas time%2C and everyone was really excited.%2Cp%2CTarget: The kids decorated the ornaments onto the tree.
1481122131,12c4409aa1421b746a992dd3f5cc7c65,AcceptabilityJudgment,13,0,practice,NULL,NULL,4,NULL,5510
1481122131,12c4409aa1421b746a992dd3f5cc7c65,AcceptabilityJudgment,14,0,practice,NULL,div%2Cp%2CContext: John asked me yesterday who all was going to be coming over.%2Cp%2CTarget: I know that Bill and Mary were planning on attending the party last night.
1481122131,12c4409aa1421b746a992dd3f5cc7c65,AcceptabilityJudgment,14,0,practice,NULL,NULL,7,NULL,5892
1481122131,12c4409aa1421b746a992dd3f5cc7c65,AcceptabilityJudgment,15,0,practice,NULL,div%2Cp%2CContext: Mary is usually fairly skeptical of public officials.%2Cp%2CTarget: Which politician did she believe the scientist and?
1481122131,12c4409aa1421b746a992dd3f5cc7c65,AcceptabilityJudgment,15,0,practice,NULL,NULL,3,NULL,3085
1481122131,12c4409aa1421b746a992dd3f5cc7c65,AcceptabilityJudgment,16,0,practice,NULL,div%2Cp%2CContext: Unfortunately%2C Susy was a little bit out of the social loop.%2Cp%2CTarget: John doubted that she knew anything of what went on after work.
1481122131,12c4409aa1421b746a992dd3f5cc7c65,AcceptabilityJudgment,16,0,practice,NULL,NULL,6,NULL,4362
1481122131,12c4409aa1421b746a992dd3f5cc7c65,AcceptabilityJudgment,258,0,filler-110,61,div%2Cp%2CContext: In a widely publicized television debate%2C I argued with several religious leaders about the reliability of scientific evidence.%2Cp%2CTarget: The evangelical pastor insisted that I clearly betrayed myself with comments about the scientific method.
1481122131,12c4409aa1421b746a992dd3f5cc7c65,AcceptabilityJudgment,258,0,filler-110,61,NULL,7,NULL,9007
1481122131,12c4409aa1421b746a992dd3f5cc7c65,AcceptabilityJudgment,197,0,amethyst-6,30,div%2Cp%2CContext: A public opinion poll weighed in with thoughts about corporate greed.%2Cp%2CTarget: The arrogant businesswoman heard that it had apparently characterized himself as greedy but successful.
1481122131,12c4409aa1421b746a992dd3f5cc7c65,AcceptabilityJudgment,197,0,amethyst-6,30,NULL,2,NULL,8782
1481122131,12c4409aa1421b746a992dd3f5cc7c65,AcceptabilityJudgment,300,0,filler-110,103,div%2Cp%2CContext: The office memo scared everyone who was worried about possible downsizing.%2Cp%2CTarget: The flighty secretary admitted that it might contain information about who would be fired.
1481122131,12c4409aa1421b746a992dd3f5cc7c65,AcceptabilityJudgment,300,0,filler-110,103,NULL,7,NULL,3752
1481122131,12c4409aa1421b746a992dd3f5cc7c65,AcceptabilityJudgment,234,0,filler-100,37,div%2Cp%2CContext: A lot of really interesting customers came into the butcher shop today.%2Cp%2CTarget: The butcher asked who the customer who bought Italian sausage had invited to dinner tonight.
1481122131,12c4409aa1421b746a992dd3f5cc7c65,AcceptabilityJudgment,234,0,filler-100,37,NULL,4,NULL,7965
1481122131,12c4409aa1421b746a992dd3f5cc7c65,AcceptabilityJudgment,89,0,amethyst-6,12,div%2Cp%2CContext: The senior citizens's lengthy apology seemed sincerely repentent for the questionable behavior.%2Cp%2CTarget: The elderly man perceived that it would finally redeem herself in the eyes of her family.
1481122131,12c4409aa1421b746a992dd3f5cc7c65,AcceptabilityJudgment,89,0,amethyst-6,12,NULL,3,NULL,8958
1481122131,12c4409aa1421b746a992dd3f5cc7c65,AcceptabilityJudgment,299,0,filler-110,102,div%2Cp%2CContext: In the middle of the severe storm%2C an emergency broadcast was sent out to warn about potential flooding.%2Cp%2CTarget: The weatherman worried that it wouldn't reach enough people in time.
1481122131,12c4409aa1421b746a992dd3f5cc7c65,AcceptabilityJudgment,299,0,filler-110,102,NULL,4,NULL,5013
1481122131,12c4409aa1421b746a992dd3f5cc7c65,AcceptabilityJudgment,271,0,filler-110,74,div%2Cp%2CContext: Most people are horrified that the tabloid printed those private pictures of celebrities.%2Cp%2CTarget: The respected reporter claims that it has disgraced itself as a media outlet.
1481122131,12c4409aa1421b746a992dd3f5cc7c65,AcceptabilityJudgment,271,0,filler-110,74,NULL,4,NULL,6521
1481122131,12c4409aa1421b746a992dd3f5cc7c65,AcceptabilityJudgment,68,0,amethyst-3,9,div%2Cp%2CContext: During the hearings%2C some controversial evidence shed new light on the case.%2Cp%2CTarget: The innocent secretary said that it definitely exonerated herself in the eyes of the court.
1481122131,12c4409aa1421b746a992dd3f5cc7c65,AcceptabilityJudgment,68,0,amethyst-3,9,NULL,4,NULL,5401
1481122131,12c4409aa1421b746a992dd3f5cc7c65,AcceptabilityJudgment,247,0,filler-100,50,div%2Cp%2CContext: A couple of little boys were causing some problems for the other children at the playground.%2Cp%2CTarget: The little girl wondered if the boy who was ignoring her had played with anyone during recess.
1481122131,12c4409aa1421b746a992dd3f5cc7c65,AcceptabilityJudgment,247,0,filler-100,50,NULL,7,NULL,6808
1481122131,12c4409aa1421b746a992dd3f5cc7c65,AcceptabilityJudgment,242,0,filler-100,45,div%2Cp%2CContext: Some audience members were really being difficult during much of the show this evening.%2Cp%2CTarget: The singer didn't know who the audience member who laughed out loud was heckling during the show.
1481122131,12c4409aa1421b746a992dd3f5cc7c65,AcceptabilityJudgment,242,0,filler-100,45,NULL,6,NULL,6073
1481122131,12c4409aa1421b746a992dd3f5cc7c65,AcceptabilityJudgment,205,0,amethyst-2,32,div%2Cp%2CContext: A member of the city council was impressed with the police response to the dangerous confrontation.%2Cp%2CTarget: The popular policewoman found out that David had recently nominated himself for the prestigious community service award.
1481122131,12c4409aa1421b746a992dd3f5cc7c65,AcceptabilityJudgment,205,0,amethyst-2,32,NULL,6,NULL,6533
1481122131,12c4409aa1421b746a992dd3f5cc7c65,AcceptabilityJudgment,303,0,filler-110,106,div%2Cp%2CContext: Many literary critics were impressed that the beautiful poem had been written by an eleven year old.%2Cp%2CTarget: The prominent journal mentioned that it was a promising start to a young career.
1481122131,12c4409aa1421b746a992dd3f5cc7c65,AcceptabilityJudgment,303,0,filler-110,106,NULL,7,NULL,7061
1481122131,12c4409aa1421b746a992dd3f5cc7c65,AcceptabilityJudgment,240,0,filler-100,43,div%2Cp%2CContext: The huge accident on the highway actually only injured one person.%2Cp%2CTarget: The cop wondered who the victim%2C who was recovering slowly%2C would blame for the accident.
1481122131,12c4409aa1421b746a992dd3f5cc7c65,AcceptabilityJudgment,240,0,filler-100,43,NULL,7,NULL,7108
1481122131,12c4409aa1421b746a992dd3f5cc7c65,AcceptabilityJudgment,18,0,amethyst-1,1,div%2Cp%2CContext: In a recent media frenzy%2C many people said some unflattering things about Hollywood icons.%2Cp%2CTarget: The famous actress said that Jessica unfairly depicted herself as unfeeling and unaffected by public opinion.
1481122131,12c4409aa1421b746a992dd3f5cc7c65,AcceptabilityJudgment,18,0,amethyst-1,1,NULL,7,NULL,5318
1481122131,12c4409aa1421b746a992dd3f5cc7c65,AcceptabilityJudgment,283,0,filler-110,86,div%2Cp%2CContext: Last week the bookstore I frequently visit was having a huge sale on new-release hardcovers.%2Cp%2CTarget: The cashier mentioned that I bought more books than anyone else.
1481122131,12c4409aa1421b746a992dd3f5cc7c65,AcceptabilityJudgment,283,0,filler-110,86,NULL,7,NULL,3649
1481122131,12c4409aa1421b746a992dd3f5cc7c65,AcceptabilityJudgment,241,0,filler-100,44,div%2Cp%2CContext: The local TV station has a very well-known and respected reporter.%2Cp%2CTarget: I couldn't remember if the reporter%2C who does the morning news%2C had mentioned me in the big story.
1481122131,12c4409aa1421b746a992dd3f5cc7c65,AcceptabilityJudgment,241,0,filler-100,44,NULL,7,NULL,2978
1481122131,12c4409aa1421b746a992dd3f5cc7c65,AcceptabilityJudgment,226,0,amethyst-5,35,div%2Cp%2CContext: An internal report was known to have an uncompromising view on business ethics.%2Cp%2CTarget: The new executive heard that it uncharitably blamed himself for all the compromises made on the way to the top.
1481122131,12c4409aa1421b746a992dd3f5cc7c65,AcceptabilityJudgment,226,0,amethyst-5,35,NULL,4,NULL,5393
1481122131,12c4409aa1421b746a992dd3f5cc7c65,AcceptabilityJudgment,257,0,filler-100,60,div%2Cp%2CContext: One customer in the cafe seemed to spend all day there.%2Cp%2CTarget: The barista wondered if the customer%2C who ordered a decaf latte%2C was meeting someone in the cafe.
1481122131,12c4409aa1421b746a992dd3f5cc7c65,AcceptabilityJudgment,257,0,filler-100,60,NULL,6,NULL,5105
1481122131,12c4409aa1421b746a992dd3f5cc7c65,AcceptabilityJudgment,286,0,filler-110,89,div%2Cp%2CContext: Unlike many applicants for the job%2C I had carefully proofread my application before submitting it.%2Cp%2CTarget: The bossy secretary mentioned that I was the only person to properly use a semicolon.
1481122131,12c4409aa1421b746a992dd3f5cc7c65,AcceptabilityJudgment,286,0,filler-110,89,NULL,7,NULL,5723
1481122131,12c4409aa1421b746a992dd3f5cc7c65,AcceptabilityJudgment,198,0,amethyst-1,31,div%2Cp%2CContext: One of the informants uncovered the possibility of police corruption.%2Cp%2CTarget: The undercover policeman saw that Zachary had evidently recorded himself talking about the secret plot.
1481122131,12c4409aa1421b746a992dd3f5cc7c65,AcceptabilityJudgment,198,0,amethyst-1,31,NULL,7,NULL,10076
1481122131,12c4409aa1421b746a992dd3f5cc7c65,AcceptabilityJudgment,274,0,filler-110,77,div%2Cp%2CContext: The small children were delighted that the storybook included many detailed illustrations.%2Cp%2CTarget: The nanny thought that it perhaps took itself a little too seriously%2C but didn't want to spoil the children's fun.
1481122131,12c4409aa1421b746a992dd3f5cc7c65,AcceptabilityJudgment,274,0,filler-110,77,NULL,3,NULL,5305
1481122131,12c4409aa1421b746a992dd3f5cc7c65,AcceptabilityJudgment,244,0,filler-100,47,div%2Cp%2CContext: One of the lawyers in the courtroom was called into the judge's personal chambers.%2Cp%2CTarget: The judge asked who the lawyer%2C who represented the defendant%2C was working with on the case.
1481122131,12c4409aa1421b746a992dd3f5cc7c65,AcceptabilityJudgment,244,0,filler-100,47,NULL,5,NULL,8212
1481122131,12c4409aa1421b746a992dd3f5cc7c65,AcceptabilityJudgment,190,0,amethyst-5,29,div%2Cp%2CContext: The district court held meetings with senators in DC.%2Cp%2CTarget: The corrupt senator overheard that it would definitely appoint himself as the new county commissioner before the election.
1481122131,12c4409aa1421b746a992dd3f5cc7c65,AcceptabilityJudgment,190,0,amethyst-5,29,NULL,4,NULL,4255
1481122131,12c4409aa1421b746a992dd3f5cc7c65,AcceptabilityJudgment,235,0,filler-100,38,div%2Cp%2CContext: At the hospital%2C there are many doctors who routinely work shifts in the ER.%2Cp%2CTarget: The administrator wondered if the doctor who manages the surgery wing had treated anyone in the ER.
1481122131,12c4409aa1421b746a992dd3f5cc7c65,AcceptabilityJudgment,235,0,filler-100,38,NULL,5,NULL,10342
1481122131,12c4409aa1421b746a992dd3f5cc7c65,AcceptabilityJudgment,245,0,filler-100,48,div%2Cp%2CContext: A gardener was doing some shopping at Home Depot today.%2Cp%2CTarget: The contractor wondered if the gardener%2C who loves tulips%2C had met anyone at the nursery.
1481122131,12c4409aa1421b746a992dd3f5cc7c65,AcceptabilityJudgment,245,0,filler-100,48,NULL,6,NULL,5444
1481122131,12c4409aa1421b746a992dd3f5cc7c65,AcceptabilityJudgment,219,0,amethyst-4,34,div%2Cp%2CContext: A self-help book encouraged gambling addicts to take up exercising to avoid temptation.%2Cp%2CTarget: The wealthy heiress said that it barely prevented himself from losing any more money at the casino.
1481122131,12c4409aa1421b746a992dd3f5cc7c65,AcceptabilityJudgment,219,0,amethyst-4,34,NULL,3,NULL,6625
1481122131,12c4409aa1421b746a992dd3f5cc7c65,AcceptabilityJudgment,260,0,filler-110,63,div%2Cp%2CContext: In a recent half marathon in San Diego%2C I finished dead last.%2Cp%2CTarget: The emergency nurse insisted I hadn't emasculated myself despite taking over eight hours to finish.
1481122131,12c4409aa1421b746a992dd3f5cc7c65,AcceptabilityJudgment,260,0,filler-110,63,NULL,5,NULL,9194
1481122131,12c4409aa1421b746a992dd3f5cc7c65,AcceptabilityJudgment,259,0,filler-110,62,div%2Cp%2CContext: After the extremely dull meeting%2C I convinced some coworkers to go out for drinks.%2Cp%2CTarget: The office secretary said that I thoroughly embarrassed myself at the bar.
1481122131,12c4409aa1421b746a992dd3f5cc7c65,AcceptabilityJudgment,259,0,filler-110,62,NULL,7,NULL,6746
1481122131,12c4409aa1421b746a992dd3f5cc7c65,AcceptabilityJudgment,161,0,amethyst-6,24,div%2Cp%2CContext: The new performance report brought up several issues with mismanagement at the large financial firm.%2Cp%2CTarget: The diligent secretary perceived that it unintentionally cast himself in a negative and slanderous light at the board meeting.
1481122131,12c4409aa1421b746a992dd3f5cc7c65,AcceptabilityJudgment,161,0,amethyst-6,24,NULL,4,NULL,5389
1481122131,12c4409aa1421b746a992dd3f5cc7c65,AcceptabilityJudgment,255,0,filler-100,58,div%2Cp%2CContext: A couple of chatty new neighbors moved into the neighborhood recently.%2Cp%2CTarget: Billy forgot if the neighbor who moved from Indiana was dating Susan this time last year.
1481122131,12c4409aa1421b746a992dd3f5cc7c65,AcceptabilityJudgment,255,0,filler-100,58,NULL,5,NULL,5566
1481122131,12c4409aa1421b746a992dd3f5cc7c65,AcceptabilityJudgment,281,0,filler-110,84,div%2Cp%2CContext: Japanese inventors recently announced that a new robot can perform complex feats of gymnastics.%2Cp%2CTarget: An impressed reporter looked on while it flipped itself off the edge of a balcony and onto a delicate balance beam below.
1481122131,12c4409aa1421b746a992dd3f5cc7c65,AcceptabilityJudgment,281,0,filler-110,84,NULL,4,NULL,5758
1481122131,12c4409aa1421b746a992dd3f5cc7c65,AcceptabilityJudgment,125,0,amethyst-6,18,div%2Cp%2CContext: A recent poll indicated that the new strategy wouldn't be very useful in a bid for reelection.%2Cp%2CTarget: The aging congressman sensed that it completely underestimated herself during the long and grueling campaign.
1481122131,12c4409aa1421b746a992dd3f5cc7c65,AcceptabilityJudgment,125,0,amethyst-6,18,NULL,4,NULL,4780
1481122131,12c4409aa1421b746a992dd3f5cc7c65,AcceptabilityJudgment,291,0,filler-110,94,div%2Cp%2CContext: I think it's important to be willing to try new foods.%2Cp%2CTarget: The snobby chef was impressed that I would eat anything he put in front of me.
1481122131,12c4409aa1421b746a992dd3f5cc7c65,AcceptabilityJudgment,291,0,filler-110,94,NULL,7,NULL,3413
1481122131,12c4409aa1421b746a992dd3f5cc7c65,AcceptabilityJudgment,269,0,filler-110,72,div%2Cp%2CContext: I've never been to a protest or rally in my life.%2Cp%2CTarget: The FBI agent said that I cleared myself of wrongdoing by being so thoroughly a-political.
1481122131,12c4409aa1421b746a992dd3f5cc7c65,AcceptabilityJudgment,269,0,filler-110,72,NULL,7,NULL,6263
1481122131,12c4409aa1421b746a992dd3f5cc7c65,AcceptabilityJudgment,90,0,amethyst-1,13,div%2Cp%2CContext: A few passersby provided evidence in the case of the hit-and-run.%2Cp%2CTarget: The honest nanny noticed that Lauren clearly implicated herself in the accident that happened in the driveway.
1481122131,12c4409aa1421b746a992dd3f5cc7c65,AcceptabilityJudgment,90,0,amethyst-1,13,NULL,6,NULL,8188
1481122131,12c4409aa1421b746a992dd3f5cc7c65,AcceptabilityJudgment,288,0,filler-110,91,div%2Cp%2CContext: At a casual cocktail party%2C I was forced to admit that I'm terrible at charades.%2Cp%2CTarget: The gracious hostess insisted that I must be better than I was claiming.
1481122131,12c4409aa1421b746a992dd3f5cc7c65,AcceptabilityJudgment,288,0,filler-110,91,NULL,7,NULL,4337
1481122131,12c4409aa1421b746a992dd3f5cc7c65,AcceptabilityJudgment,290,0,filler-110,93,div%2Cp%2CContext: While on vacation in Egypt%2C I stumbled across an ancient tomb full of treasures.%2Cp%2CTarget: The frightened tourguide worried that I had been cursed by my accidental discovery.
1481122131,12c4409aa1421b746a992dd3f5cc7c65,AcceptabilityJudgment,290,0,filler-110,93,NULL,7,NULL,10955
1481122131,12c4409aa1421b746a992dd3f5cc7c65,AcceptabilityJudgment,75,0,amethyst-4,10,div%2Cp%2CContext: The patient's diary revealed that they had a crush on someone in the hospital.%2Cp%2CTarget: The flustered doctor complained that it embarrassingly called herself very attractive and made suggestive comments.
1481122131,12c4409aa1421b746a992dd3f5cc7c65,AcceptabilityJudgment,75,0,amethyst-4,10,NULL,4,NULL,6818
1481122131,12c4409aa1421b746a992dd3f5cc7c65,AcceptabilityJudgment,268,0,filler-110,71,div%2Cp%2CContext: Unlike many people%2C I don't enjoy scary rides at amusement parks.%2Cp%2CTarget: The concession stand employee agreed that I should confine myself to eating popsicles all day instead.
1481122131,12c4409aa1421b746a992dd3f5cc7c65,AcceptabilityJudgment,268,0,filler-110,71,NULL,7,NULL,6591
1481122131,12c4409aa1421b746a992dd3f5cc7c65,AcceptabilityJudgment,276,0,filler-110,79,div%2Cp%2CContext: A podcast which parodies TED talks has been gaining popularity lately.%2Cp%2CTarget: One prominent CEO has claimed that it obviously invalidates itself by failing to deal with the very real issues discussed by TED speakers.
1481122131,12c4409aa1421b746a992dd3f5cc7c65,AcceptabilityJudgment,276,0,filler-110,79,NULL,4,NULL,9462
1481122131,12c4409aa1421b746a992dd3f5cc7c65,AcceptabilityJudgment,212,0,amethyst-3,33,div%2Cp%2CContext: The highly-publicized restaurant review reported glowingly on expanding food options in the area.%2Cp%2CTarget: The irritable waiter mentioned that it obviously complimented himself for the excellent and expensive meal.
1481122131,12c4409aa1421b746a992dd3f5cc7c65,AcceptabilityJudgment,212,0,amethyst-3,33,NULL,4,NULL,4725
1481122131,12c4409aa1421b746a992dd3f5cc7c65,AcceptabilityJudgment,285,0,filler-110,88,div%2Cp%2CContext: Until quite recently%2C I hadn't realized that hyenas are actually more closely related to cats than to dogs.%2Cp%2CTarget: The condescending biologist claimed that I was the first person he had met who didn't know this.
1481122131,12c4409aa1421b746a992dd3f5cc7c65,AcceptabilityJudgment,285,0,filler-110,88,NULL,6,NULL,4503
1481122131,12c4409aa1421b746a992dd3f5cc7c65,AcceptabilityJudgment,287,0,filler-110,90,div%2Cp%2CContext: At a baseball game last weekend%2C I caught a fly ball hit into the stands.%2Cp%2CTarget: The concession salesman was impressed that I hadn't hurt my hand in the attempt.
1481122131,12c4409aa1421b746a992dd3f5cc7c65,AcceptabilityJudgment,287,0,filler-110,90,NULL,6,NULL,7613
1481122131,12c4409aa1421b746a992dd3f5cc7c65,AcceptabilityJudgment,233,0,amethyst-6,36,div%2Cp%2CContext: A negative performance review came up in a conversation about promotion possibilities in the office.%2Cp%2CTarget: The exasperated secretary noticed that it unfairly denied himself a chance at advancing in the company.
1481122131,12c4409aa1421b746a992dd3f5cc7c65,AcceptabilityJudgment,233,0,amethyst-6,36,NULL,4,NULL,5984
1481122131,12c4409aa1421b746a992dd3f5cc7c65,AcceptabilityJudgment,236,0,filler-100,39,div%2Cp%2CContext: After the big brawl%2C there was actually only one student who had gotten in trouble.%2Cp%2CTarget: The principal wanted to know who the student%2C who was expelled%2C had threatened with a knife.
1481122131,12c4409aa1421b746a992dd3f5cc7c65,AcceptabilityJudgment,236,0,filler-100,39,NULL,6,NULL,6079
1481122131,12c4409aa1421b746a992dd3f5cc7c65,AcceptabilityJudgment,249,0,filler-100,52,div%2Cp%2CContext: There was one young fan of the author who was particularly enthusiastic about the new book.%2Cp%2CTarget: The author asked if the young fan%2C who organized the book-signing%2C had invited Mary to the event.
1481122131,12c4409aa1421b746a992dd3f5cc7c65,AcceptabilityJudgment,249,0,filler-100,52,NULL,7,NULL,3665
1481122131,12c4409aa1421b746a992dd3f5cc7c65,AcceptabilityJudgment,133,0,amethyst-2,20,div%2Cp%2CContext: One of the campus administrators adressed the issue of over-working student interns.%2Cp%2CTarget: The industrious schoolgirl said that Matthew usually allowed himself to take a break from archiving.
1481122131,12c4409aa1421b746a992dd3f5cc7c65,AcceptabilityJudgment,133,0,amethyst-2,20,NULL,7,NULL,5770
1481122131,12c4409aa1421b746a992dd3f5cc7c65,AcceptabilityJudgment,296,0,filler-110,99,div%2Cp%2CContext: Thanks to a generous donation%2C the opera house was able to stay open for another season.%2Cp%2CTarget: The aged maestro worried that it had been struggling for years%2C and wouldn't last much longer.
1481122131,12c4409aa1421b746a992dd3f5cc7c65,AcceptabilityJudgment,296,0,filler-110,99,NULL,4,NULL,3777
1481122131,12c4409aa1421b746a992dd3f5cc7c65,AcceptabilityJudgment,252,0,filler-100,55,div%2Cp%2CContext: Only one doctor was assigned to every patient when the ER was overrun.%2Cp%2CTarget: The nurse asked who the doctor%2C who treated the crash victim%2C had examined very thoroughly.
1481122131,12c4409aa1421b746a992dd3f5cc7c65,AcceptabilityJudgment,252,0,filler-100,55,NULL,5,NULL,3756
1481122131,12c4409aa1421b746a992dd3f5cc7c65,AcceptabilityJudgment,97,0,amethyst-2,14,div%2Cp%2CContext: One of the campus RAs caught some college students heading out for the evening.%2Cp%2CTarget: The frat boy found out that Courtney sneakily photographed herself on the way to the party.
1481122131,12c4409aa1421b746a992dd3f5cc7c65,AcceptabilityJudgment,97,0,amethyst-2,14,NULL,6,NULL,6820
1481122131,12c4409aa1421b746a992dd3f5cc7c65,AcceptabilityJudgment,253,0,filler-100,56,div%2Cp%2CContext: One hacker worked on her own to launch an attack on the government.%2Cp%2CTarget: The reporter wanted to know if the hacker%2C who coded the software%2C had attacked the NSA with a virus.
1481122131,12c4409aa1421b746a992dd3f5cc7c65,AcceptabilityJudgment,253,0,filler-100,56,NULL,6,NULL,10190
1481122131,12c4409aa1421b746a992dd3f5cc7c65,AcceptabilityJudgment,239,0,filler-100,42,div%2Cp%2CContext: Some of the dancers really didn't seem to be focusing on practice this morning.%2Cp%2CTarget: The choreographer didn't know if the dancer who danced clumsily had run into anyone during practice.
1481122131,12c4409aa1421b746a992dd3f5cc7c65,AcceptabilityJudgment,239,0,filler-100,42,NULL,5,NULL,10112
1481122131,12c4409aa1421b746a992dd3f5cc7c65,AcceptabilityJudgment,111,0,amethyst-4,16,div%2Cp%2CContext: An incriminating photo caused a bit of a stir in the library.%2Cp%2CTarget: The shy schoolboy admitted that it had thoroughly embarrassed herself in the cafeteria during lunch.
1481122131,12c4409aa1421b746a992dd3f5cc7c65,AcceptabilityJudgment,111,0,amethyst-4,16,NULL,3,NULL,4919
1481122131,12c4409aa1421b746a992dd3f5cc7c65,AcceptabilityJudgment,261,0,filler-110,64,div%2Cp%2CContext: At a concert last night%2C I was struggling to find a friend who had become separated from the group.%2Cp%2CTarget: The security guard noted that I had shouted myself hoarse and offered to help.
1481122131,12c4409aa1421b746a992dd3f5cc7c65,AcceptabilityJudgment,261,0,filler-110,64,NULL,7,NULL,5998
1481122131,12c4409aa1421b746a992dd3f5cc7c65,AcceptabilityJudgment,289,0,filler-110,92,div%2Cp%2CContext: I believed that Santa was real until I was sixteen years old.%2Cp%2CTarget: The other girls at school couldn't believe that I could be so naive.
1481122131,12c4409aa1421b746a992dd3f5cc7c65,AcceptabilityJudgment,289,0,filler-110,92,NULL,7,NULL,6952
1481122131,12c4409aa1421b746a992dd3f5cc7c65,AcceptabilityJudgment,54,0,amethyst-1,7,div%2Cp%2CContext: A recent interview showed a few newscasters making disparaging remarks about fashion models.%2Cp%2CTarget: The gorgeous supermodel boasted that Hannah consistently underestimated herself when it came to giving public speeches.
1481122131,12c4409aa1421b746a992dd3f5cc7c65,AcceptabilityJudgment,54,0,amethyst-1,7,NULL,7,NULL,8236
1481122131,12c4409aa1421b746a992dd3f5cc7c65,AcceptabilityJudgment,248,0,filler-100,51,div%2Cp%2CContext: The newest senator is not known for having very high ethical standards.%2Cp%2CTarget: The lobbyist knew who the senator%2C who voted for higher taxes%2C had bribed during the election.
1481122131,12c4409aa1421b746a992dd3f5cc7c65,AcceptabilityJudgment,248,0,filler-100,51,NULL,6,NULL,4153
1481122131,12c4409aa1421b746a992dd3f5cc7c65,AcceptabilityJudgment,263,0,filler-110,66,div%2Cp%2CContext: In a job interview for a conservative law firm%2C I made the mistake of talking about my ties to the communist party.%2Cp%2CTarget: The officious interviewer disliked that I aligned myself so closely with such left-leaning policies.
1481122131,12c4409aa1421b746a992dd3f5cc7c65,AcceptabilityJudgment,263,0,filler-110,66,NULL,7,NULL,4858
1481122131,12c4409aa1421b746a992dd3f5cc7c65,AcceptabilityJudgment,39,0,amethyst-4,4,div%2Cp%2CContext: In a highly contentious criminal case%2C the testimony was frequently misquoted.%2Cp%2CTarget: The male witness said that it completely misrepresented herself in the trial but the jury didn't buy it.
1481122131,12c4409aa1421b746a992dd3f5cc7c65,AcceptabilityJudgment,39,0,amethyst-4,4,NULL,4,NULL,6154
1481122131,12c4409aa1421b746a992dd3f5cc7c65,AcceptabilityJudgment,279,0,filler-110,82,div%2Cp%2CContext: Before the long car trip%2C the dog walker tried to get the puppy to play a lot in the yard.%2Cp%2CTarget: The dog's owner hoped it would tire itself out before they had to drive across the country.
1481122131,12c4409aa1421b746a992dd3f5cc7c65,AcceptabilityJudgment,279,0,filler-110,82,NULL,7,NULL,8397
1481122131,12c4409aa1421b746a992dd3f5cc7c65,AcceptabilityJudgment,250,0,filler-100,53,div%2Cp%2CContext: The neighboring city has some really excellent butchers.%2Cp%2CTarget: Joan didn't remember who the butcher who sold organic beef had hired to deliver his meat.
1481122131,12c4409aa1421b746a992dd3f5cc7c65,AcceptabilityJudgment,250,0,filler-100,53,NULL,6,NULL,4663
1481122131,12c4409aa1421b746a992dd3f5cc7c65,AcceptabilityJudgment,162,0,amethyst-1,25,div%2Cp%2CContext: One of New York's best-known critics was featured in a Bon Appetit expose on flourishing counterculture movements in Brooklyn.%2Cp%2CTarget: The charming butcher boasted that Brandon highly praised himself for a job skillfully and tastefully done.
1481122131,12c4409aa1421b746a992dd3f5cc7c65,AcceptabilityJudgment,162,0,amethyst-1,25,NULL,7,NULL,14792
1481122131,12c4409aa1421b746a992dd3f5cc7c65,AcceptabilityJudgment,254,0,filler-100,57,div%2Cp%2CContext: The principal was worried about a number of students in the class.%2Cp%2CTarget: The teacher asked who the student who was failing math could talk to for some help.
1481122131,12c4409aa1421b746a992dd3f5cc7c65,AcceptabilityJudgment,254,0,filler-100,57,NULL,5,NULL,4869
1481122131,12c4409aa1421b746a992dd3f5cc7c65,AcceptabilityJudgment,301,0,filler-110,104,div%2Cp%2CContext: During storytime%2C the kindergarten teacher told the children a fairytale about a witch and a princess.%2Cp%2CTarget: The worried mother complained that it might give her daughter nightmares.
1481122131,12c4409aa1421b746a992dd3f5cc7c65,AcceptabilityJudgment,301,0,filler-110,104,NULL,7,NULL,6424
1481122131,12c4409aa1421b746a992dd3f5cc7c65,AcceptabilityJudgment,82,0,amethyst-5,11,div%2Cp%2CContext: The proposal from the manager suggested that the kitchen should hire someone new.%2Cp%2CTarget: The frazzled waitress overheard that it wholeheartedly recommended herself for the new position.
1481122131,12c4409aa1421b746a992dd3f5cc7c65,AcceptabilityJudgment,82,0,amethyst-5,11,NULL,3,NULL,15258
1481122131,12c4409aa1421b746a992dd3f5cc7c65,AcceptabilityJudgment,293,0,filler-110,96,div%2Cp%2CContext: From time to time I like to get away from the city and reconnect with nature.%2Cp%2CTarget: The grimy conservationist was convinced that I could be converted to his cause%2C despite my stance on federal regulation.
1481122131,12c4409aa1421b746a992dd3f5cc7c65,AcceptabilityJudgment,293,0,filler-110,96,NULL,7,NULL,8184
1481122131,12c4409aa1421b746a992dd3f5cc7c65,AcceptabilityJudgment,305,0,filler-110,108,div%2Cp%2CContext: The rose garden at the palace of Versailles is reportedly one of the most beautiful in the world.%2Cp%2CTarget: The wealthy heiress insisted that it would be the perfect spot for her wedding.
1481122131,12c4409aa1421b746a992dd3f5cc7c65,AcceptabilityJudgment,305,0,filler-110,108,NULL,7,NULL,2653
1481122131,12c4409aa1421b746a992dd3f5cc7c65,AcceptabilityJudgment,154,0,amethyst-5,23,div%2Cp%2CContext: The notoriously liberal magazine had been harping on the issue of immigration reform for a long while.%2Cp%2CTarget: The republican congressman got word that it maliciously misrepresented himself to young voters across the country.
1481122131,12c4409aa1421b746a992dd3f5cc7c65,AcceptabilityJudgment,154,0,amethyst-5,23,NULL,4,NULL,5602
1481122131,12c4409aa1421b746a992dd3f5cc7c65,AcceptabilityJudgment,262,0,filler-110,65,div%2Cp%2CContext: Last night%2C I was kept up late writing college application essays.%2Cp%2CTarget: The guidance counsellor insists that I make myself more appealing to mid-range institutions.
1481122131,12c4409aa1421b746a992dd3f5cc7c65,AcceptabilityJudgment,262,0,filler-110,65,NULL,7,NULL,4237
1481122131,12c4409aa1421b746a992dd3f5cc7c65,AcceptabilityJudgment,304,0,filler-110,107,div%2Cp%2CContext: Every year tourists visit the magnificent fountain to appreciate its beauty.%2Cp%2CTarget: The custodian complained that it always gets clogged with the coins they throw in.
1481122131,12c4409aa1421b746a992dd3f5cc7c65,AcceptabilityJudgment,304,0,filler-110,107,NULL,7,NULL,6309
1481122131,12c4409aa1421b746a992dd3f5cc7c65,AcceptabilityJudgment,61,0,amethyst-2,8,div%2Cp%2CContext: To prank the school staff%2C a few students circulated a rumor about an undercover celebrity on campus.%2Cp%2CTarget: The gullible janitor admitted that Elizabeth somehow managed to trick herself into believing that the story was true.
1481122131,12c4409aa1421b746a992dd3f5cc7c65,AcceptabilityJudgment,61,0,amethyst-2,8,NULL,7,NULL,8269
1481122131,12c4409aa1421b746a992dd3f5cc7c65,AcceptabilityJudgment,295,0,filler-110,98,div%2Cp%2CContext: The museum pamphlet seemed to indicate that the modern art exhibit was closed.%2Cp%2CTarget: The security guard said that it had been confusing patrons for years.
1481122131,12c4409aa1421b746a992dd3f5cc7c65,AcceptabilityJudgment,295,0,filler-110,98,NULL,7,NULL,7663
1481122131,12c4409aa1421b746a992dd3f5cc7c65,AcceptabilityJudgment,297,0,filler-110,100,div%2Cp%2CContext: The catchy new song was repeatedly played on just about every radio station.%2Cp%2CTarget: The talkshow host complained that it got stuck in his head almost every day.
1481122131,12c4409aa1421b746a992dd3f5cc7c65,AcceptabilityJudgment,297,0,filler-110,100,NULL,7,NULL,4774
1481122131,12c4409aa1421b746a992dd3f5cc7c65,AcceptabilityJudgment,176,0,amethyst-3,27,div%2Cp%2CContext: The moving documentary brought to light the serious ethical implications of over-breeding pets.%2Cp%2CTarget: The legendary rock star said that it definitely inspired himself to write a new song about this social injustice.
1481122131,12c4409aa1421b746a992dd3f5cc7c65,AcceptabilityJudgment,176,0,amethyst-3,27,NULL,7,NULL,7616
1481122131,12c4409aa1421b746a992dd3f5cc7c65,AcceptabilityJudgment,270,0,filler-110,73,div%2Cp%2CContext: Many critics were surprised that the novel so clearly referenced the author's troubled home life.%2Cp%2CTarget: The publicist insists that it clearly shows itself to be a phenomenal work of art.
1481122131,12c4409aa1421b746a992dd3f5cc7c65,AcceptabilityJudgment,270,0,filler-110,73,NULL,7,NULL,7711
1481122131,12c4409aa1421b746a992dd3f5cc7c65,AcceptabilityJudgment,282,0,filler-110,85,div%2Cp%2CContext: I went skating yesterday and fell on the ice.%2Cp%2CTarget: The ER doctor said that I was lucky to have not broken my leg.
1481122131,12c4409aa1421b746a992dd3f5cc7c65,AcceptabilityJudgment,282,0,filler-110,85,NULL,7,NULL,2905
1481122131,12c4409aa1421b746a992dd3f5cc7c65,AcceptabilityJudgment,104,0,amethyst-3,15,div%2Cp%2CContext: A book on camping was brought in to give advice on wilderness survival.%2Cp%2CTarget: The proud girl scout boasted that it helpfully taught herself how to build a fire using only two sticks and a rock.
1481122131,12c4409aa1421b746a992dd3f5cc7c65,AcceptabilityJudgment,104,0,amethyst-3,15,NULL,7,NULL,8771
1481122131,12c4409aa1421b746a992dd3f5cc7c65,AcceptabilityJudgment,272,0,filler-110,75,div%2Cp%2CContext: There was general outrage when a photograph which won several art competitions was revealed to have been photoshopped.%2Cp%2CTarget: One competitor has repeatedly insinuated that it misrepresented itself as an unaltered piece of photographic skill.
1481122131,12c4409aa1421b746a992dd3f5cc7c65,AcceptabilityJudgment,272,0,filler-110,75,NULL,7,NULL,8406
1481122131,12c4409aa1421b746a992dd3f5cc7c65,AcceptabilityJudgment,251,0,filler-100,54,div%2Cp%2CContext: The local teenagers are known for being very cruel.%2Cp%2CTarget: Alex wondered if the teenager who was a clever prankster would target John for his next prank.
1481122131,12c4409aa1421b746a992dd3f5cc7c65,AcceptabilityJudgment,251,0,filler-100,54,NULL,6,NULL,8517
1481122131,12c4409aa1421b746a992dd3f5cc7c65,AcceptabilityJudgment,25,0,amethyst-2,2,div%2Cp%2CContext: After the devastating earthquake%2C some rescue workers received a lot of media attention.%2Cp%2CTarget: The influential congressman said that Ashley definitely inspired herself to give back to the community more.
1481122131,12c4409aa1421b746a992dd3f5cc7c65,AcceptabilityJudgment,25,0,amethyst-2,2,NULL,7,NULL,11094
1481122131,12c4409aa1421b746a992dd3f5cc7c65,AcceptabilityJudgment,246,0,filler-100,49,div%2Cp%2CContext: The company put several employees in charge of the hiring process.%2Cp%2CTarget: The applicant asked who the employee who conducted the interviews would hire if he could.
1481122131,12c4409aa1421b746a992dd3f5cc7c65,AcceptabilityJudgment,246,0,filler-100,49,NULL,6,NULL,6390
1481122131,12c4409aa1421b746a992dd3f5cc7c65,AcceptabilityJudgment,278,0,filler-110,81,div%2Cp%2CContext: The insurance investigator reported that a stovetop burner started the massive fire.%2Cp%2CTarget: The homeowner swears that it ignited itself despite mounting evidence to the contrary.
1481122131,12c4409aa1421b746a992dd3f5cc7c65,AcceptabilityJudgment,278,0,filler-110,81,NULL,7,NULL,5982
1481122131,12c4409aa1421b746a992dd3f5cc7c65,AcceptabilityJudgment,118,0,amethyst-5,17,div%2Cp%2CContext: An advertisement was extremely complimentary of the recently released classical music album.%2Cp%2CTarget: The graceful harpist saw that it shamelessly promoted herself as a famous musician in the making.
1481122131,12c4409aa1421b746a992dd3f5cc7c65,AcceptabilityJudgment,118,0,amethyst-5,17,NULL,7,NULL,8588
1481122131,12c4409aa1421b746a992dd3f5cc7c65,AcceptabilityJudgment,298,0,filler-110,101,div%2Cp%2CContext: The mugshot showed a very prominent tattoo on the suspect's back.%2Cp%2CTarget:  The policeman hoped that it would help them track him down for arrest.
1481122131,12c4409aa1421b746a992dd3f5cc7c65,AcceptabilityJudgment,298,0,filler-110,101,NULL,7,NULL,8594
1481122131,12c4409aa1421b746a992dd3f5cc7c65,AcceptabilityJudgment,292,0,filler-110,95,div%2Cp%2CContext: As a member of the Free Masons%2C I always laugh at conspiracy theories.%2Cp%2CTarget: The president of the club insists that I should be more concerned with public perception.
1481122131,12c4409aa1421b746a992dd3f5cc7c65,AcceptabilityJudgment,292,0,filler-110,95,NULL,7,NULL,4881
1481122131,12c4409aa1421b746a992dd3f5cc7c65,AcceptabilityJudgment,140,0,amethyst-3,21,div%2Cp%2CContext: The newspaper was concerned with the accuracy of some of the statements made to the public.%2Cp%2CTarget: The trustworthy policeman reported that it roundly criticized himself for the error during the trial.
1481122131,12c4409aa1421b746a992dd3f5cc7c65,AcceptabilityJudgment,140,0,amethyst-3,21,NULL,7,NULL,8516
1481122131,12c4409aa1421b746a992dd3f5cc7c65,AcceptabilityJudgment,294,0,filler-110,97,div%2Cp%2CContext: In a dramatic turnaround%2C the soap opera brought in significantly more viewers than expected.%2Cp%2CTarget: The shocked analyst said that it would probably continue to draw viewers for another five seasons.
1481122131,12c4409aa1421b746a992dd3f5cc7c65,AcceptabilityJudgment,294,0,filler-110,97,NULL,7,NULL,3597
1481122131,12c4409aa1421b746a992dd3f5cc7c65,AcceptabilityJudgment,238,0,filler-100,41,div%2Cp%2CContext: This town has many very well-qualified contractors that you could hire.%2Cp%2CTarget: The homeowner asked who the contractor who fixed the roof would hire for the next job.
1481122131,12c4409aa1421b746a992dd3f5cc7c65,AcceptabilityJudgment,238,0,filler-100,41,NULL,6,NULL,6310
1481122131,12c4409aa1421b746a992dd3f5cc7c65,AcceptabilityJudgment,53,0,amethyst-6,6,div%2Cp%2CContext: Several newspapers reported that a glowing letter recommended the financier for the job.%2Cp%2CTarget: The skilled businessman got word that it actually described herself as hardworking and industrious during the interview.
1481122131,12c4409aa1421b746a992dd3f5cc7c65,AcceptabilityJudgment,53,0,amethyst-6,6,NULL,7,NULL,11472
1481122131,12c4409aa1421b746a992dd3f5cc7c65,AcceptabilityJudgment,243,0,filler-100,46,div%2Cp%2CContext: Some of the businessmen were very vocal about their politics.%2Cp%2CTarget: The oilman wondered if the businessman who hated fossil fuels had fired someone from his company.
1481122131,12c4409aa1421b746a992dd3f5cc7c65,AcceptabilityJudgment,243,0,filler-100,46,NULL,6,NULL,7193
1481122131,12c4409aa1421b746a992dd3f5cc7c65,AcceptabilityJudgment,237,0,filler-100,40,div%2Cp%2CContext: The star violinist in the orchestra can be very touchy.%2Cp%2CTarget: The conductor asked if the violinist%2C who was very upset%2C had talked to anyone before coming in.
1481122131,12c4409aa1421b746a992dd3f5cc7c65,AcceptabilityJudgment,237,0,filler-100,40,NULL,7,NULL,4848
1481122131,12c4409aa1421b746a992dd3f5cc7c65,AcceptabilityJudgment,147,0,amethyst-4,22,div%2Cp%2CContext: A formal complaint mentioned an unpleasant incident on set yesterday.%2Cp%2CTarget: The beautiful supermodel said that it uncharitably described himself as cruel and abusive in the workplace.
1481122131,12c4409aa1421b746a992dd3f5cc7c65,AcceptabilityJudgment,147,0,amethyst-4,22,NULL,4,NULL,8150
1481122131,12c4409aa1421b746a992dd3f5cc7c65,AcceptabilityJudgment,265,0,filler-110,68,div%2Cp%2CContext: At a consultation with a tax attorney%2C I complained about how high property taxes are.%2Cp%2CTarget: The accountant replied that I could save myself a lot of money by diversifying my interests.
1481122131,12c4409aa1421b746a992dd3f5cc7c65,AcceptabilityJudgment,265,0,filler-110,68,NULL,7,NULL,4772
1481122131,12c4409aa1421b746a992dd3f5cc7c65,AcceptabilityJudgment,284,0,filler-110,87,div%2Cp%2CContext: The community center offers several night classes that I have taken advantage of.%2Cp%2CTarget: The excitable calligraphy teacher insisted that I have the best penmanship he has ever seen.
1481122131,12c4409aa1421b746a992dd3f5cc7c65,AcceptabilityJudgment,284,0,filler-110,87,NULL,7,NULL,6277
1481122131,12c4409aa1421b746a992dd3f5cc7c65,AcceptabilityJudgment,32,0,amethyst-3,3,div%2Cp%2CContext: During a closed door meeting about hiring policy%2C a private report called into question recent decisions.%2Cp%2CTarget: The industrious councilwoman insisted that it frequently characterized herself as exceptionally helpful and diligent.
1481122131,12c4409aa1421b746a992dd3f5cc7c65,AcceptabilityJudgment,32,0,amethyst-3,3,NULL,6,NULL,9388
1481122131,12c4409aa1421b746a992dd3f5cc7c65,AcceptabilityJudgment,264,0,filler-110,67,div%2Cp%2CContext: Thanks to a crushing social anxiety%2C I haven't had any luck trying to find a date lately.%2Cp%2CTarget: One girl admitted that I hadn't groomed myself nearly well enough to be trying speed dating.
1481122131,12c4409aa1421b746a992dd3f5cc7c65,AcceptabilityJudgment,264,0,filler-110,67,NULL,7,NULL,4559
1481122131,12c4409aa1421b746a992dd3f5cc7c65,AcceptabilityJudgment,266,0,filler-110,69,div%2Cp%2CContext: Since becoming a devout buddhist%2C I haven't eaten any meat.%2Cp%2CTarget: The local butcher doesn't understand why I would limit myself to only eating vegetables.
1481122131,12c4409aa1421b746a992dd3f5cc7c65,AcceptabilityJudgment,266,0,filler-110,69,NULL,7,NULL,3342
1481122131,12c4409aa1421b746a992dd3f5cc7c65,AcceptabilityJudgment,183,0,amethyst-4,28,div%2Cp%2CContext: The new evidence was very persuasive in deciding the outcome of the trial.%2Cp%2CTarget: The serious newswoman reported that it fully convinced himself that the testimony was false and unreliable.
1481122131,12c4409aa1421b746a992dd3f5cc7c65,AcceptabilityJudgment,183,0,amethyst-4,28,NULL,4,NULL,8781
1481122131,12c4409aa1421b746a992dd3f5cc7c65,AcceptabilityJudgment,277,0,filler-110,80,div%2Cp%2CContext: A fake news program ruffled a lot of feathers with a recent skit about famous politicians.%2Cp%2CTarget: The political pundit was outraged that it billed itself as a legitimate news source.
1481122131,12c4409aa1421b746a992dd3f5cc7c65,AcceptabilityJudgment,277,0,filler-110,80,NULL,7,NULL,6786
1481122131,12c4409aa1421b746a992dd3f5cc7c65,AcceptabilityJudgment,273,0,filler-110,76,div%2Cp%2CContext: An internal memo detailing corporate malfeasance was recently released to the public.%2Cp%2CTarget: The congresswoman said that it spoke for itself as evidence of corruption on Wall Street.
1481122131,12c4409aa1421b746a992dd3f5cc7c65,AcceptabilityJudgment,273,0,filler-110,76,NULL,7,NULL,9949
1481122131,12c4409aa1421b746a992dd3f5cc7c65,AcceptabilityJudgment,126,0,amethyst-1,19,div%2Cp%2CContext: The budding actor came up in a recent conversation about signing deals with movie labels.%2Cp%2CTarget: The impatient manager insisted that Michael had irreversibly committed himself to four years with the film studio.
1481122131,12c4409aa1421b746a992dd3f5cc7c65,AcceptabilityJudgment,126,0,amethyst-1,19,NULL,6,NULL,7470
1481122131,12c4409aa1421b746a992dd3f5cc7c65,AcceptabilityJudgment,256,0,filler-100,59,div%2Cp%2CContext: The school has a notorious bully.%2Cp%2CTarget: Pauline definitely knows who the bully%2C who beat up George%2C was harassing this week.
1481122131,12c4409aa1421b746a992dd3f5cc7c65,AcceptabilityJudgment,256,0,filler-100,59,NULL,5,NULL,3904
1481122131,12c4409aa1421b746a992dd3f5cc7c65,AcceptabilityJudgment,280,0,filler-110,83,div%2Cp%2CContext: While still learning to climb%2C the baby orangutang fell from a dangerously high branch.%2Cp%2CTarget: The field biologist was very happy that it managed to catch itself on the way down.
1481122131,12c4409aa1421b746a992dd3f5cc7c65,AcceptabilityJudgment,280,0,filler-110,83,NULL,7,NULL,8313
1481122131,12c4409aa1421b746a992dd3f5cc7c65,AcceptabilityJudgment,46,0,amethyst-5,5,div%2Cp%2CContext: In what became a major scandal%2C a leaked email revealed a celebrity's intimate secrets.%2Cp%2CTarget: The aspiring actress noticed that it intentionally portrayed herself as petty and vindictive.
1481122131,12c4409aa1421b746a992dd3f5cc7c65,AcceptabilityJudgment,46,0,amethyst-5,5,NULL,7,NULL,6214
1481122131,12c4409aa1421b746a992dd3f5cc7c65,AcceptabilityJudgment,302,0,filler-110,105,div%2Cp%2CContext: The sappy movie made everyone in the theater cry by the time the credits rolled.%2Cp%2CTarget: The popcorn vendor said that it had inspired some couples to propose right in the middle of the lobby.
1481122131,12c4409aa1421b746a992dd3f5cc7c65,AcceptabilityJudgment,302,0,filler-110,105,NULL,7,NULL,6533
1481122131,12c4409aa1421b746a992dd3f5cc7c65,AcceptabilityJudgment,275,0,filler-110,78,div%2Cp%2CContext: A new talkshow is slated to make its debut on TV this fall.%2Cp%2CTarget: The radiohost complained that it has been shamelessly promoting itself on every channel for the last year.
1481122131,12c4409aa1421b746a992dd3f5cc7c65,AcceptabilityJudgment,275,0,filler-110,78,NULL,7,NULL,12224
1481122131,12c4409aa1421b746a992dd3f5cc7c65,AcceptabilityJudgment,169,0,amethyst-2,26,div%2Cp%2CContext: One of the key witnesses was called into question during the trial.%2Cp%2CTarget: The friendly receptionist admitted that Daniel apparently identified himself as a potential suspect in an ongoing investigation.
1481122131,12c4409aa1421b746a992dd3f5cc7c65,AcceptabilityJudgment,169,0,amethyst-2,26,NULL,7,NULL,9509
1481122131,12c4409aa1421b746a992dd3f5cc7c65,AcceptabilityJudgment,267,0,filler-110,70,div%2Cp%2CContext: While on a fishing trip off the coast of Alaska%2C I caught an enormous salmon.%2Cp%2CTarget: The fishing guide asked if I wanted to ship myself the frozen fish to enjoy at home.
1481122131,12c4409aa1421b746a992dd3f5cc7c65,AcceptabilityJudgment,267,0,filler-110,70,NULL,6,NULL,5631
# Columns below this comment are as follows:
# 1. Time results were received.
# 2. MD5 hash of participant's IP address.
# 3. Controller name.
# 4. Item number.
# 5. Element number.
# 6. Type.
# 7. Group.
# 8. Field name.
# 9. Field value.
1481122131,12c4409aa1421b746a992dd3f5cc7c65,Form,5,0,iriTest,NULL,fs1,3
1481122131,12c4409aa1421b746a992dd3f5cc7c65,Form,5,0,iriTest,NULL,ec1,1
1481122131,12c4409aa1421b746a992dd3f5cc7c65,Form,5,0,iriTest,NULL,pt1,1
1481122131,12c4409aa1421b746a992dd3f5cc7c65,Form,5,0,iriTest,NULL,ec2,3
1481122131,12c4409aa1421b746a992dd3f5cc7c65,Form,5,0,iriTest,NULL,fs2,1
1481122131,12c4409aa1421b746a992dd3f5cc7c65,Form,5,0,iriTest,NULL,pd1,3
1481122131,12c4409aa1421b746a992dd3f5cc7c65,Form,5,0,iriTest,NULL,fs3,1
1481122131,12c4409aa1421b746a992dd3f5cc7c65,Form,5,0,iriTest,NULL,pt2,1
1481122131,12c4409aa1421b746a992dd3f5cc7c65,Form,5,0,iriTest,NULL,ec3,1
1481122131,12c4409aa1421b746a992dd3f5cc7c65,Form,5,0,iriTest,NULL,pd2,3
1481122131,12c4409aa1421b746a992dd3f5cc7c65,Form,5,0,iriTest,NULL,pt3,1
1481122131,12c4409aa1421b746a992dd3f5cc7c65,Form,5,0,iriTest,NULL,fs4,1
1481122131,12c4409aa1421b746a992dd3f5cc7c65,Form,5,0,iriTest,NULL,pd3,2
1481122131,12c4409aa1421b746a992dd3f5cc7c65,Form,5,0,iriTest,NULL,ec4,2
1481122131,12c4409aa1421b746a992dd3f5cc7c65,Form,5,0,iriTest,NULL,pt4,1
1481122131,12c4409aa1421b746a992dd3f5cc7c65,Form,5,0,iriTest,NULL,fs5,1
1481122131,12c4409aa1421b746a992dd3f5cc7c65,Form,5,0,iriTest,NULL,pd4,3
1481122131,12c4409aa1421b746a992dd3f5cc7c65,Form,5,0,iriTest,NULL,ec5,1
1481122131,12c4409aa1421b746a992dd3f5cc7c65,Form,5,0,iriTest,NULL,pd5,3
1481122131,12c4409aa1421b746a992dd3f5cc7c65,Form,5,0,iriTest,NULL,ec6,2
1481122131,12c4409aa1421b746a992dd3f5cc7c65,Form,5,0,iriTest,NULL,pt5,1
1481122131,12c4409aa1421b746a992dd3f5cc7c65,Form,5,0,iriTest,NULL,ec7,2
1481122131,12c4409aa1421b746a992dd3f5cc7c65,Form,5,0,iriTest,NULL,fs6,1
1481122131,12c4409aa1421b746a992dd3f5cc7c65,Form,5,0,iriTest,NULL,pd6,3
1481122131,12c4409aa1421b746a992dd3f5cc7c65,Form,5,0,iriTest,NULL,pt6,1
1481122131,12c4409aa1421b746a992dd3f5cc7c65,Form,5,0,iriTest,NULL,fs7,1
1481122131,12c4409aa1421b746a992dd3f5cc7c65,Form,5,0,iriTest,NULL,pd7,3
1481122131,12c4409aa1421b746a992dd3f5cc7c65,Form,5,0,iriTest,NULL,pt7,1
1481122131,12c4409aa1421b746a992dd3f5cc7c65,Form,6,0,exit,NULL,comments,
1481122131,12c4409aa1421b746a992dd3f5cc7c65,Form,6,0,exit,NULL,priorExpt,yes
1481122131,12c4409aa1421b746a992dd3f5cc7c65,Form,6,0,exit,NULL,priorRefl,no
1481122131,12c4409aa1421b746a992dd3f5cc7c65,Form,6,0,exit,NULL,logLang,no
1481122131,12c4409aa1421b746a992dd3f5cc7c65,Form,6,0,exit,NULL,logContrast,yes2
1481122131,12c4409aa1421b746a992dd3f5cc7c65,Form,7,0,exit,NULL,randomfield,3lGvGgLG
1481122131,12c4409aa1421b746a992dd3f5cc7c65,Form,7,0,exit,NULL,worker_id,A2FV0CMG9S8CU0
#
# Results on Wednesday December 07 2016 15:09:44 UTC.
# USER AGENT: Mozilla/5.0 (Windows NT 10.0; WOW64) AppleWebKit/537.36 (KHTML, like Gecko) Chrome/54.0.2840.99 Safari/537.36
# Design number was non-random = 1
#
# Columns below this comment are as follows:
# 1. Time results were received.
# 2. MD5 hash of participant's IP address.
# 3. Controller name.
# 4. Item number.
# 5. Element number.
# 6. Type.
# 7. Group.
# 8. Field name.
# 9. Field value.
1481123385,f976945e675af877dca10c5a244d6ba3,Form,2,0,consent,NULL,workerID,
1481123385,f976945e675af877dca10c5a244d6ba3,SSForm,4,0,consent,NULL,nLang,English
1481123385,f976945e675af877dca10c5a244d6ba3,SSForm,4,0,consent,NULL,pLang,English
1481123385,f976945e675af877dca10c5a244d6ba3,SSForm,4,0,consent,NULL,oLang,none
1481123385,f976945e675af877dca10c5a244d6ba3,SSForm,4,0,consent,NULL,dLang,English
1481123385,f976945e675af877dca10c5a244d6ba3,SSForm,4,0,consent,NULL,gender,male
1481123385,f976945e675af877dca10c5a244d6ba3,SSForm,4,0,consent,NULL,age,40
1481123385,f976945e675af877dca10c5a244d6ba3,SSForm,4,0,consent,NULL,state,WV
# The lines below this comment are in groups of 2.
# The formats of the lines in each of these groups are as follows:
#
# Line 1:
#     Col. 1: Time results were received.
#     Col. 2: MD5 hash of participant's IP address.
#     Col. 3: Controller name.
#     Col. 4: Item number.
#     Col. 5: Element number.
#     Col. 6: Type.
#     Col. 7: Group.
#     Col. 8: Sentence (or sentence MD5).
# Line 2:
#     Col. 1: Time results were received.
#     Col. 2: MD5 hash of participant's IP address.
#     Col. 3: Controller name.
#     Col. 4: Item number.
#     Col. 5: Element number.
#     Col. 6: Type.
#     Col. 7: Group.
#     Col. 8: Question (NULL if none).
#     Col. 9: Answer.
#     Col. 10: Whether or not answer was correct (NULL if N/A).
#     Col. 11: Time taken to answer.
1481123385,f976945e675af877dca10c5a244d6ba3,AcceptabilityJudgment,13,0,practice,NULL,div%2Cp%2CContext: It was Christmas time%2C and everyone was really excited.%2Cp%2CTarget: The kids decorated the ornaments onto the tree.
1481123385,f976945e675af877dca10c5a244d6ba3,AcceptabilityJudgment,13,0,practice,NULL,NULL,2,NULL,6533
1481123385,f976945e675af877dca10c5a244d6ba3,AcceptabilityJudgment,14,0,practice,NULL,div%2Cp%2CContext: John asked me yesterday who all was going to be coming over.%2Cp%2CTarget: I know that Bill and Mary were planning on attending the party last night.
1481123385,f976945e675af877dca10c5a244d6ba3,AcceptabilityJudgment,14,0,practice,NULL,NULL,6,NULL,7364
1481123385,f976945e675af877dca10c5a244d6ba3,AcceptabilityJudgment,15,0,practice,NULL,div%2Cp%2CContext: Mary is usually fairly skeptical of public officials.%2Cp%2CTarget: Which politician did she believe the scientist and?
1481123385,f976945e675af877dca10c5a244d6ba3,AcceptabilityJudgment,15,0,practice,NULL,NULL,1,NULL,9231
1481123385,f976945e675af877dca10c5a244d6ba3,AcceptabilityJudgment,16,0,practice,NULL,div%2Cp%2CContext: Unfortunately%2C Susy was a little bit out of the social loop.%2Cp%2CTarget: John doubted that she knew anything of what went on after work.
1481123385,f976945e675af877dca10c5a244d6ba3,AcceptabilityJudgment,16,0,practice,NULL,NULL,6,NULL,7777
1481123385,f976945e675af877dca10c5a244d6ba3,AcceptabilityJudgment,282,0,filler-110,85,div%2Cp%2CContext: I went skating yesterday and fell on the ice.%2Cp%2CTarget: The ER doctor said that I was lucky to have not broken my leg.
1481123385,f976945e675af877dca10c5a244d6ba3,AcceptabilityJudgment,282,0,filler-110,85,NULL,6,NULL,7497
1481123385,f976945e675af877dca10c5a244d6ba3,AcceptabilityJudgment,177,0,amethyst-4,27,div%2Cp%2CContext: The moving documentary brought to light the serious ethical implications of over-breeding pets.%2Cp%2CTarget: The legendary pop diva said that it definitely inspired himself to write a new song about this social injustice.
1481123385,f976945e675af877dca10c5a244d6ba3,AcceptabilityJudgment,177,0,amethyst-4,27,NULL,2,NULL,10682
1481123385,f976945e675af877dca10c5a244d6ba3,AcceptabilityJudgment,278,0,filler-110,81,div%2Cp%2CContext: The insurance investigator reported that a stovetop burner started the massive fire.%2Cp%2CTarget: The homeowner swears that it ignited itself despite mounting evidence to the contrary.
1481123385,f976945e675af877dca10c5a244d6ba3,AcceptabilityJudgment,278,0,filler-110,81,NULL,6,NULL,10345
1481123385,f976945e675af877dca10c5a244d6ba3,AcceptabilityJudgment,284,0,filler-110,87,div%2Cp%2CContext: The community center offers several night classes that I have taken advantage of.%2Cp%2CTarget: The excitable calligraphy teacher insisted that I have the best penmanship he has ever seen.
1481123385,f976945e675af877dca10c5a244d6ba3,AcceptabilityJudgment,284,0,filler-110,87,NULL,6,NULL,12724
1481123385,f976945e675af877dca10c5a244d6ba3,AcceptabilityJudgment,47,0,amethyst-6,5,div%2Cp%2CContext: In what became a major scandal%2C a leaked email revealed a celebrity's intimate secrets.%2Cp%2CTarget: The aspiring actor noticed that it intentionally portrayed herself as petty and vindictive.
1481123385,f976945e675af877dca10c5a244d6ba3,AcceptabilityJudgment,47,0,amethyst-6,5,NULL,3,NULL,14110
1481123385,f976945e675af877dca10c5a244d6ba3,AcceptabilityJudgment,240,0,filler-100,43,div%2Cp%2CContext: The huge accident on the highway actually only injured one person.%2Cp%2CTarget: The cop wondered who the victim%2C who was recovering slowly%2C would blame for the accident.
1481123385,f976945e675af877dca10c5a244d6ba3,AcceptabilityJudgment,240,0,filler-100,43,NULL,6,NULL,16747
1481123385,f976945e675af877dca10c5a244d6ba3,AcceptabilityJudgment,283,0,filler-110,86,div%2Cp%2CContext: Last week the bookstore I frequently visit was having a huge sale on new-release hardcovers.%2Cp%2CTarget: The cashier mentioned that I bought more books than anyone else.
1481123385,f976945e675af877dca10c5a244d6ba3,AcceptabilityJudgment,283,0,filler-110,86,NULL,6,NULL,9266
1481123385,f976945e675af877dca10c5a244d6ba3,AcceptabilityJudgment,156,0,amethyst-1,24,div%2Cp%2CContext: One of the emotional employees brought up several issues with mismanagement at the large financial firm.%2Cp%2CTarget: The wealthy banker argued that Nicholas unintentionally cast himself in a negative and slanderous light at the board meeting.
1481123385,f976945e675af877dca10c5a244d6ba3,AcceptabilityJudgment,156,0,amethyst-1,24,NULL,6,NULL,16646
1481123385,f976945e675af877dca10c5a244d6ba3,AcceptabilityJudgment,294,0,filler-110,97,div%2Cp%2CContext: In a dramatic turnaround%2C the soap opera brought in significantly more viewers than expected.%2Cp%2CTarget: The shocked analyst said that it would probably continue to draw viewers for another five seasons.
1481123385,f976945e675af877dca10c5a244d6ba3,AcceptabilityJudgment,294,0,filler-110,97,NULL,6,NULL,9557
1481123385,f976945e675af877dca10c5a244d6ba3,AcceptabilityJudgment,304,0,filler-110,107,div%2Cp%2CContext: Every year tourists visit the magnificent fountain to appreciate its beauty.%2Cp%2CTarget: The custodian complained that it always gets clogged with the coins they throw in.
1481123385,f976945e675af877dca10c5a244d6ba3,AcceptabilityJudgment,304,0,filler-110,107,NULL,5,NULL,9735
1481123385,f976945e675af877dca10c5a244d6ba3,AcceptabilityJudgment,105,0,amethyst-4,15,div%2Cp%2CContext: A book on camping was brought in to give advice on wilderness survival.%2Cp%2CTarget: The proud boy scout boasted that it helpfully taught herself how to build a fire using only two sticks and a rock.
1481123385,f976945e675af877dca10c5a244d6ba3,AcceptabilityJudgment,105,0,amethyst-4,15,NULL,1,NULL,7424
1481123385,f976945e675af877dca10c5a244d6ba3,AcceptabilityJudgment,262,0,filler-110,65,div%2Cp%2CContext: Last night%2C I was kept up late writing college application essays.%2Cp%2CTarget: The guidance counsellor insists that I make myself more appealing to mid-range institutions.
1481123385,f976945e675af877dca10c5a244d6ba3,AcceptabilityJudgment,262,0,filler-110,65,NULL,6,NULL,15273
1481123385,f976945e675af877dca10c5a244d6ba3,AcceptabilityJudgment,251,0,filler-100,54,div%2Cp%2CContext: The local teenagers are known for being very cruel.%2Cp%2CTarget: Alex wondered if the teenager who was a clever prankster would target John for his next prank.
1481123385,f976945e675af877dca10c5a244d6ba3,AcceptabilityJudgment,251,0,filler-100,54,NULL,6,NULL,13556
1481123385,f976945e675af877dca10c5a244d6ba3,AcceptabilityJudgment,62,0,amethyst-3,8,div%2Cp%2CContext: To prank the school staff%2C a fake newscast circulated a rumor about an undercover celebrity on campus.%2Cp%2CTarget: The gullible librarian admitted that it somehow managed to trick herself into believing that the story was true.
1481123385,f976945e675af877dca10c5a244d6ba3,AcceptabilityJudgment,62,0,amethyst-3,8,NULL,2,NULL,14852
1481123385,f976945e675af877dca10c5a244d6ba3,AcceptabilityJudgment,243,0,filler-100,46,div%2Cp%2CContext: Some of the businessmen were very vocal about their politics.%2Cp%2CTarget: The oilman wondered if the businessman who hated fossil fuels had fired someone from his company.
1481123385,f976945e675af877dca10c5a244d6ba3,AcceptabilityJudgment,243,0,filler-100,46,NULL,6,NULL,10212
1481123385,f976945e675af877dca10c5a244d6ba3,AcceptabilityJudgment,293,0,filler-110,96,div%2Cp%2CContext: From time to time I like to get away from the city and reconnect with nature.%2Cp%2CTarget: The grimy conservationist was convinced that I could be converted to his cause%2C despite my stance on federal regulation.
1481123385,f976945e675af877dca10c5a244d6ba3,AcceptabilityJudgment,293,0,filler-110,96,NULL,7,NULL,19612
1481123385,f976945e675af877dca10c5a244d6ba3,AcceptabilityJudgment,76,0,amethyst-5,10,div%2Cp%2CContext: The patient's diary revealed that they had a crush on someone in the hospital.%2Cp%2CTarget: The flustered nurse found out that it embarrassingly called herself very attractive and made suggestive comments.
1481123385,f976945e675af877dca10c5a244d6ba3,AcceptabilityJudgment,76,0,amethyst-5,10,NULL,3,NULL,11405
1481123385,f976945e675af877dca10c5a244d6ba3,AcceptabilityJudgment,295,0,filler-110,98,div%2Cp%2CContext: The museum pamphlet seemed to indicate that the modern art exhibit was closed.%2Cp%2CTarget: The security guard said that it had been confusing patrons for years.
1481123385,f976945e675af877dca10c5a244d6ba3,AcceptabilityJudgment,295,0,filler-110,98,NULL,7,NULL,8232
1481123385,f976945e675af877dca10c5a244d6ba3,AcceptabilityJudgment,248,0,filler-100,51,div%2Cp%2CContext: The newest senator is not known for having very high ethical standards.%2Cp%2CTarget: The lobbyist knew who the senator%2C who voted for higher taxes%2C had bribed during the election.
1481123385,f976945e675af877dca10c5a244d6ba3,AcceptabilityJudgment,248,0,filler-100,51,NULL,5,NULL,11445
1481123385,f976945e675af877dca10c5a244d6ba3,AcceptabilityJudgment,213,0,amethyst-4,33,div%2Cp%2CContext: The highly-publicized restaurant review reported glowingly on expanding food options in the area.%2Cp%2CTarget: The irritable waitress mentioned that it obviously complimented himself for the excellent and expensive meal.
1481123385,f976945e675af877dca10c5a244d6ba3,AcceptabilityJudgment,213,0,amethyst-4,33,NULL,2,NULL,17213
1481123385,f976945e675af877dca10c5a244d6ba3,AcceptabilityJudgment,249,0,filler-100,52,div%2Cp%2CContext: There was one young fan of the author who was particularly enthusiastic about the new book.%2Cp%2CTarget: The author asked if the young fan%2C who organized the book-signing%2C had invited Mary to the event.
1481123385,f976945e675af877dca10c5a244d6ba3,AcceptabilityJudgment,249,0,filler-100,52,NULL,7,NULL,36381
1481123385,f976945e675af877dca10c5a244d6ba3,AcceptabilityJudgment,264,0,filler-110,67,div%2Cp%2CContext: Thanks to a crushing social anxiety%2C I haven't had any luck trying to find a date lately.%2Cp%2CTarget: One girl admitted that I hadn't groomed myself nearly well enough to be trying speed dating.
1481123385,f976945e675af877dca10c5a244d6ba3,AcceptabilityJudgment,264,0,filler-110,67,NULL,2,NULL,12813
1481123385,f976945e675af877dca10c5a244d6ba3,AcceptabilityJudgment,26,0,amethyst-3,2,div%2Cp%2CContext: After the devastating earthquake%2C the depressing story received a lot of media attention.%2Cp%2CTarget: The influential congresswoman said that it definitely inspired herself to give back to the community more.
1481123385,f976945e675af877dca10c5a244d6ba3,AcceptabilityJudgment,26,0,amethyst-3,2,NULL,2,NULL,17827
1481123385,f976945e675af877dca10c5a244d6ba3,AcceptabilityJudgment,291,0,filler-110,94,div%2Cp%2CContext: I think it's important to be willing to try new foods.%2Cp%2CTarget: The snobby chef was impressed that I would eat anything he put in front of me.
1481123385,f976945e675af877dca10c5a244d6ba3,AcceptabilityJudgment,291,0,filler-110,94,NULL,7,NULL,6212
1481123385,f976945e675af877dca10c5a244d6ba3,AcceptabilityJudgment,252,0,filler-100,55,div%2Cp%2CContext: Only one doctor was assigned to every patient when the ER was overrun.%2Cp%2CTarget: The nurse asked who the doctor%2C who treated the crash victim%2C had examined very thoroughly.
1481123385,f976945e675af877dca10c5a244d6ba3,AcceptabilityJudgment,252,0,filler-100,55,NULL,3,NULL,17134
1481123385,f976945e675af877dca10c5a244d6ba3,AcceptabilityJudgment,120,0,amethyst-1,18,div%2Cp%2CContext: Several pundits indicated that the new strategy wouldn't be very useful in a bid for reelection.%2Cp%2CTarget: The aging congresswoman sensed that Amanda completely underestimated herself during the long and grueling campaign.
1481123385,f976945e675af877dca10c5a244d6ba3,AcceptabilityJudgment,120,0,amethyst-1,18,NULL,6,NULL,18988
1481123385,f976945e675af877dca10c5a244d6ba3,AcceptabilityJudgment,274,0,filler-110,77,div%2Cp%2CContext: The small children were delighted that the storybook included many detailed illustrations.%2Cp%2CTarget: The nanny thought that it perhaps took itself a little too seriously%2C but didn't want to spoil the children's fun.
1481123385,f976945e675af877dca10c5a244d6ba3,AcceptabilityJudgment,274,0,filler-110,77,NULL,3,NULL,104812
1481123385,f976945e675af877dca10c5a244d6ba3,AcceptabilityJudgment,259,0,filler-110,62,div%2Cp%2CContext: After the extremely dull meeting%2C I convinced some coworkers to go out for drinks.%2Cp%2CTarget: The office secretary said that I thoroughly embarrassed myself at the bar.
1481123385,f976945e675af877dca10c5a244d6ba3,AcceptabilityJudgment,259,0,filler-110,62,NULL,7,NULL,7366
1481123385,f976945e675af877dca10c5a244d6ba3,AcceptabilityJudgment,69,0,amethyst-4,9,div%2Cp%2CContext: During the hearings%2C some controversial evidence shed new light on the case.%2Cp%2CTarget: The innocent manager said that it definitely exonerated herself in the eyes of the court.
1481123385,f976945e675af877dca10c5a244d6ba3,AcceptabilityJudgment,69,0,amethyst-4,9,NULL,3,NULL,16385
1481123385,f976945e675af877dca10c5a244d6ba3,AcceptabilityJudgment,246,0,filler-100,49,div%2Cp%2CContext: The company put several employees in charge of the hiring process.%2Cp%2CTarget: The applicant asked who the employee who conducted the interviews would hire if he could.
1481123385,f976945e675af877dca10c5a244d6ba3,AcceptabilityJudgment,246,0,filler-100,49,NULL,6,NULL,11447
1481123385,f976945e675af877dca10c5a244d6ba3,AcceptabilityJudgment,286,0,filler-110,89,div%2Cp%2CContext: Unlike many applicants for the job%2C I had carefully proofread my application before submitting it.%2Cp%2CTarget: The bossy secretary mentioned that I was the only person to properly use a semicolon.
1481123385,f976945e675af877dca10c5a244d6ba3,AcceptabilityJudgment,286,0,filler-110,89,NULL,7,NULL,10173
1481123385,f976945e675af877dca10c5a244d6ba3,AcceptabilityJudgment,206,0,amethyst-3,32,div%2Cp%2CContext: A local news agency was impressed with the police response to the dangerous confrontation.%2Cp%2CTarget: The popular policeman reported that it had recently nominated himself for the prestigious community service award.
1481123385,f976945e675af877dca10c5a244d6ba3,AcceptabilityJudgment,206,0,amethyst-3,32,NULL,2,NULL,16916
1481123385,f976945e675af877dca10c5a244d6ba3,AcceptabilityJudgment,272,0,filler-110,75,div%2Cp%2CContext: There was general outrage when a photograph which won several art competitions was revealed to have been photoshopped.%2Cp%2CTarget: One competitor has repeatedly insinuated that it misrepresented itself as an unaltered piece of photographic skill.
1481123385,f976945e675af877dca10c5a244d6ba3,AcceptabilityJudgment,272,0,filler-110,75,NULL,3,NULL,20597
1481123385,f976945e675af877dca10c5a244d6ba3,AcceptabilityJudgment,290,0,filler-110,93,div%2Cp%2CContext: While on vacation in Egypt%2C I stumbled across an ancient tomb full of treasures.%2Cp%2CTarget: The frightened tourguide worried that I had been cursed by my accidental discovery.
1481123385,f976945e675af877dca10c5a244d6ba3,AcceptabilityJudgment,290,0,filler-110,93,NULL,7,NULL,8870
1481123385,f976945e675af877dca10c5a244d6ba3,AcceptabilityJudgment,192,0,amethyst-1,30,div%2Cp%2CContext: A private citizen weighed in with thoughts about corporate greed.%2Cp%2CTarget: The arrogant businessman heard that John had apparently characterized himself as greedy but successful.
1481123385,f976945e675af877dca10c5a244d6ba3,AcceptabilityJudgment,192,0,amethyst-1,30,NULL,6,NULL,19612
1481123385,f976945e675af877dca10c5a244d6ba3,AcceptabilityJudgment,273,0,filler-110,76,div%2Cp%2CContext: An internal memo detailing corporate malfeasance was recently released to the public.%2Cp%2CTarget: The congresswoman said that it spoke for itself as evidence of corruption on Wall Street.
1481123385,f976945e675af877dca10c5a244d6ba3,AcceptabilityJudgment,273,0,filler-110,76,NULL,6,NULL,14439
1481123385,f976945e675af877dca10c5a244d6ba3,AcceptabilityJudgment,279,0,filler-110,82,div%2Cp%2CContext: Before the long car trip%2C the dog walker tried to get the puppy to play a lot in the yard.%2Cp%2CTarget: The dog's owner hoped it would tire itself out before they had to drive across the country.
1481123385,f976945e675af877dca10c5a244d6ba3,AcceptabilityJudgment,279,0,filler-110,82,NULL,7,NULL,8927
1481123385,f976945e675af877dca10c5a244d6ba3,AcceptabilityJudgment,170,0,amethyst-3,26,div%2Cp%2CContext: A surveillance photo was called into question during the trial.%2Cp%2CTarget: The security guard admitted that it apparently identified himself as a potential suspect in an ongoing investigation.
1481123385,f976945e675af877dca10c5a244d6ba3,AcceptabilityJudgment,170,0,amethyst-3,26,NULL,4,NULL,10783
1481123385,f976945e675af877dca10c5a244d6ba3,AcceptabilityJudgment,292,0,filler-110,95,div%2Cp%2CContext: As a member of the Free Masons%2C I always laugh at conspiracy theories.%2Cp%2CTarget: The president of the club insists that I should be more concerned with public perception.
1481123385,f976945e675af877dca10c5a244d6ba3,AcceptabilityJudgment,292,0,filler-110,95,NULL,7,NULL,12007
1481123385,f976945e675af877dca10c5a244d6ba3,AcceptabilityJudgment,298,0,filler-110,101,div%2Cp%2CContext: The mugshot showed a very prominent tattoo on the suspect's back.%2Cp%2CTarget:  The policeman hoped that it would help them track him down for arrest.
1481123385,f976945e675af877dca10c5a244d6ba3,AcceptabilityJudgment,298,0,filler-110,101,NULL,7,NULL,7354
1481123385,f976945e675af877dca10c5a244d6ba3,AcceptabilityJudgment,84,0,amethyst-1,12,div%2Cp%2CContext: The celebrity seemed sincerely repentent for her questionable behavior.%2Cp%2CTarget: The elderly woman perceived that Alexis would finally redeem herself in the eyes of her family.
1481123385,f976945e675af877dca10c5a244d6ba3,AcceptabilityJudgment,84,0,amethyst-1,12,NULL,5,NULL,15227
1481123385,f976945e675af877dca10c5a244d6ba3,AcceptabilityJudgment,276,0,filler-110,79,div%2Cp%2CContext: A podcast which parodies TED talks has been gaining popularity lately.%2Cp%2CTarget: One prominent CEO has claimed that it obviously invalidates itself by failing to deal with the very real issues discussed by TED speakers.
1481123385,f976945e675af877dca10c5a244d6ba3,AcceptabilityJudgment,276,0,filler-110,79,NULL,5,NULL,29318
1481123385,f976945e675af877dca10c5a244d6ba3,AcceptabilityJudgment,244,0,filler-100,47,div%2Cp%2CContext: One of the lawyers in the courtroom was called into the judge's personal chambers.%2Cp%2CTarget: The judge asked who the lawyer%2C who represented the defendant%2C was working with on the case.
1481123385,f976945e675af877dca10c5a244d6ba3,AcceptabilityJudgment,244,0,filler-100,47,NULL,5,NULL,9378
1481123385,f976945e675af877dca10c5a244d6ba3,AcceptabilityJudgment,19,0,amethyst-2,1,div%2Cp%2CContext: In a recent media frenzy%2C many people said some unflattering things about Hollywood icons.%2Cp%2CTarget: The famous actor said that Jessica unfairly depicted herself as unfeeling and unaffected by public opinion.
1481123385,f976945e675af877dca10c5a244d6ba3,AcceptabilityJudgment,19,0,amethyst-2,1,NULL,7,NULL,11527
1481123385,f976945e675af877dca10c5a244d6ba3,AcceptabilityJudgment,271,0,filler-110,74,div%2Cp%2CContext: Most people are horrified that the tabloid printed those private pictures of celebrities.%2Cp%2CTarget: The respected reporter claims that it has disgraced itself as a media outlet.
1481123385,f976945e675af877dca10c5a244d6ba3,AcceptabilityJudgment,271,0,filler-110,74,NULL,2,NULL,23679
1481123385,f976945e675af877dca10c5a244d6ba3,AcceptabilityJudgment,255,0,filler-100,58,div%2Cp%2CContext: A couple of chatty new neighbors moved into the neighborhood recently.%2Cp%2CTarget: Billy forgot if the neighbor who moved from Indiana was dating Susan this time last year.
1481123385,f976945e675af877dca10c5a244d6ba3,AcceptabilityJudgment,255,0,filler-100,58,NULL,5,NULL,10334
1481123385,f976945e675af877dca10c5a244d6ba3,AcceptabilityJudgment,98,0,amethyst-3,14,div%2Cp%2CContext: A security camera caught some college students heading out for the evening.%2Cp%2CTarget: The sorority girl mentioned that it sneakily photographed herself on the way to the party.
1481123385,f976945e675af877dca10c5a244d6ba3,AcceptabilityJudgment,98,0,amethyst-3,14,NULL,1,NULL,12172
1481123385,f976945e675af877dca10c5a244d6ba3,AcceptabilityJudgment,299,0,filler-110,102,div%2Cp%2CContext: In the middle of the severe storm%2C an emergency broadcast was sent out to warn about potential flooding.%2Cp%2CTarget: The weatherman worried that it wouldn't reach enough people in time.
1481123385,f976945e675af877dca10c5a244d6ba3,AcceptabilityJudgment,299,0,filler-110,102,NULL,7,NULL,7181
1481123385,f976945e675af877dca10c5a244d6ba3,AcceptabilityJudgment,285,0,filler-110,88,div%2Cp%2CContext: Until quite recently%2C I hadn't realized that hyenas are actually more closely related to cats than to dogs.%2Cp%2CTarget: The condescending biologist claimed that I was the first person he had met who didn't know this.
1481123385,f976945e675af877dca10c5a244d6ba3,AcceptabilityJudgment,285,0,filler-110,88,NULL,6,NULL,19207
1481123385,f976945e675af877dca10c5a244d6ba3,AcceptabilityJudgment,184,0,amethyst-5,28,div%2Cp%2CContext: The new evidence was very persuasive in deciding the outcome of the trial.%2Cp%2CTarget: The brilliant detective perceived that it fully convinced himself that the testimony was false and unreliable.
1481123385,f976945e675af877dca10c5a244d6ba3,AcceptabilityJudgment,184,0,amethyst-5,28,NULL,2,NULL,9184
1481123385,f976945e675af877dca10c5a244d6ba3,AcceptabilityJudgment,261,0,filler-110,64,div%2Cp%2CContext: At a concert last night%2C I was struggling to find a friend who had become separated from the group.%2Cp%2CTarget: The security guard noted that I had shouted myself hoarse and offered to help.
1481123385,f976945e675af877dca10c5a244d6ba3,AcceptabilityJudgment,261,0,filler-110,64,NULL,6,NULL,14246
1481123385,f976945e675af877dca10c5a244d6ba3,AcceptabilityJudgment,302,0,filler-110,105,div%2Cp%2CContext: The sappy movie made everyone in the theater cry by the time the credits rolled.%2Cp%2CTarget: The popcorn vendor said that it had inspired some couples to propose right in the middle of the lobby.
1481123385,f976945e675af877dca10c5a244d6ba3,AcceptabilityJudgment,302,0,filler-110,105,NULL,7,NULL,16760
1481123385,f976945e675af877dca10c5a244d6ba3,AcceptabilityJudgment,228,0,amethyst-1,36,div%2Cp%2CContext: One of the underachieving employees came up in a conversation about promotion possibilities in the office.%2Cp%2CTarget: The exasperated manager noticed that Robert unfairly denied himself a chance at advancing in the company.
1481123385,f976945e675af877dca10c5a244d6ba3,AcceptabilityJudgment,228,0,amethyst-1,36,NULL,6,NULL,34828
1481123385,f976945e675af877dca10c5a244d6ba3,AcceptabilityJudgment,256,0,filler-100,59,div%2Cp%2CContext: The school has a notorious bully.%2Cp%2CTarget: Pauline definitely knows who the bully%2C who beat up George%2C was harassing this week.
1481123385,f976945e675af877dca10c5a244d6ba3,AcceptabilityJudgment,256,0,filler-100,59,NULL,5,NULL,9796
1481123385,f976945e675af877dca10c5a244d6ba3,AcceptabilityJudgment,296,0,filler-110,99,div%2Cp%2CContext: Thanks to a generous donation%2C the opera house was able to stay open for another season.%2Cp%2CTarget: The aged maestro worried that it had been struggling for years%2C and wouldn't last much longer.
1481123385,f976945e675af877dca10c5a244d6ba3,AcceptabilityJudgment,296,0,filler-110,99,NULL,6,NULL,11857
1481123385,f976945e675af877dca10c5a244d6ba3,AcceptabilityJudgment,55,0,amethyst-2,7,div%2Cp%2CContext: A recent interview showed a few newscasters making disparaging remarks about fashion models.%2Cp%2CTarget: The handsome actor boasted that Hannah consistently underestimated herself when it came to giving public speeches.
1481123385,f976945e675af877dca10c5a244d6ba3,AcceptabilityJudgment,55,0,amethyst-2,7,NULL,7,NULL,12742
1481123385,f976945e675af877dca10c5a244d6ba3,AcceptabilityJudgment,266,0,filler-110,69,div%2Cp%2CContext: Since becoming a devout buddhist%2C I haven't eaten any meat.%2Cp%2CTarget: The local butcher doesn't understand why I would limit myself to only eating vegetables.
1481123385,f976945e675af877dca10c5a244d6ba3,AcceptabilityJudgment,266,0,filler-110,69,NULL,7,NULL,7855
1481123385,f976945e675af877dca10c5a244d6ba3,AcceptabilityJudgment,237,0,filler-100,40,div%2Cp%2CContext: The star violinist in the orchestra can be very touchy.%2Cp%2CTarget: The conductor asked if the violinist%2C who was very upset%2C had talked to anyone before coming in.
1481123385,f976945e675af877dca10c5a244d6ba3,AcceptabilityJudgment,237,0,filler-100,40,NULL,6,NULL,30698
1481123385,f976945e675af877dca10c5a244d6ba3,AcceptabilityJudgment,163,0,amethyst-2,25,div%2Cp%2CContext: One of New York's best-known critics was featured in a Bon Appetit expose on flourishing counterculture movements in Brooklyn.%2Cp%2CTarget: The pretty florist boasted that Brandon highly praised himself for a job skillfully and tastefully done.
1481123385,f976945e675af877dca10c5a244d6ba3,AcceptabilityJudgment,163,0,amethyst-2,25,NULL,6,NULL,20364
1481123385,f976945e675af877dca10c5a244d6ba3,AcceptabilityJudgment,241,0,filler-100,44,div%2Cp%2CContext: The local TV station has a very well-known and respected reporter.%2Cp%2CTarget: I couldn't remember if the reporter%2C who does the morning news%2C had mentioned me in the big story.
1481123385,f976945e675af877dca10c5a244d6ba3,AcceptabilityJudgment,241,0,filler-100,44,NULL,7,NULL,9628
1481123385,f976945e675af877dca10c5a244d6ba3,AcceptabilityJudgment,254,0,filler-100,57,div%2Cp%2CContext: The principal was worried about a number of students in the class.%2Cp%2CTarget: The teacher asked who the student who was failing math could talk to for some help.
1481123385,f976945e675af877dca10c5a244d6ba3,AcceptabilityJudgment,254,0,filler-100,57,NULL,6,NULL,9115
1481123385,f976945e675af877dca10c5a244d6ba3,AcceptabilityJudgment,33,0,amethyst-4,3,div%2Cp%2CContext: During a closed door meeting about hiring policy%2C a private report called into question recent decisions.%2Cp%2CTarget: The industrious councilman insisted that it frequently characterized herself as exceptionally helpful and diligent.
1481123385,f976945e675af877dca10c5a244d6ba3,AcceptabilityJudgment,33,0,amethyst-4,3,NULL,2,NULL,14240
1481123385,f976945e675af877dca10c5a244d6ba3,AcceptabilityJudgment,239,0,filler-100,42,div%2Cp%2CContext: Some of the dancers really didn't seem to be focusing on practice this morning.%2Cp%2CTarget: The choreographer didn't know if the dancer who danced clumsily had run into anyone during practice.
1481123385,f976945e675af877dca10c5a244d6ba3,AcceptabilityJudgment,239,0,filler-100,42,NULL,6,NULL,12815
1481123385,f976945e675af877dca10c5a244d6ba3,AcceptabilityJudgment,303,0,filler-110,106,div%2Cp%2CContext: Many literary critics were impressed that the beautiful poem had been written by an eleven year old.%2Cp%2CTarget: The prominent journal mentioned that it was a promising start to a young career.
1481123385,f976945e675af877dca10c5a244d6ba3,AcceptabilityJudgment,303,0,filler-110,106,NULL,7,NULL,8583
1481123385,f976945e675af877dca10c5a244d6ba3,AcceptabilityJudgment,83,0,amethyst-6,11,div%2Cp%2CContext: The proposal from the manager suggested that the kitchen should hire someone new.%2Cp%2CTarget: The scruffy waiter overheard that it wholeheartedly recommended herself for the new position.
1481123385,f976945e675af877dca10c5a244d6ba3,AcceptabilityJudgment,83,0,amethyst-6,11,NULL,3,NULL,10176
1481123385,f976945e675af877dca10c5a244d6ba3,AcceptabilityJudgment,247,0,filler-100,50,div%2Cp%2CContext: A couple of little boys were causing some problems for the other children at the playground.%2Cp%2CTarget: The little girl wondered if the boy who was ignoring her had played with anyone during recess.
1481123385,f976945e675af877dca10c5a244d6ba3,AcceptabilityJudgment,247,0,filler-100,50,NULL,6,NULL,9735
1481123385,f976945e675af877dca10c5a244d6ba3,AcceptabilityJudgment,267,0,filler-110,70,div%2Cp%2CContext: While on a fishing trip off the coast of Alaska%2C I caught an enormous salmon.%2Cp%2CTarget: The fishing guide asked if I wanted to ship myself the frozen fish to enjoy at home.
1481123385,f976945e675af877dca10c5a244d6ba3,AcceptabilityJudgment,267,0,filler-110,70,NULL,3,NULL,11510
1481123385,f976945e675af877dca10c5a244d6ba3,AcceptabilityJudgment,48,0,amethyst-1,6,div%2Cp%2CContext: Several newspapers reported that prominent members of the business community recommended the financier for the job.%2Cp%2CTarget: The skilled businesswoman mentioned that Taylor actually described herself as hardworking and industrious during the interview.
1481123385,f976945e675af877dca10c5a244d6ba3,AcceptabilityJudgment,48,0,amethyst-1,6,NULL,6,NULL,15205
1481123385,f976945e675af877dca10c5a244d6ba3,AcceptabilityJudgment,288,0,filler-110,91,div%2Cp%2CContext: At a casual cocktail party%2C I was forced to admit that I'm terrible at charades.%2Cp%2CTarget: The gracious hostess insisted that I must be better than I was claiming.
1481123385,f976945e675af877dca10c5a244d6ba3,AcceptabilityJudgment,288,0,filler-110,91,NULL,6,NULL,31526
1481123385,f976945e675af877dca10c5a244d6ba3,AcceptabilityJudgment,277,0,filler-110,80,div%2Cp%2CContext: A fake news program ruffled a lot of feathers with a recent skit about famous politicians.%2Cp%2CTarget: The political pundit was outraged that it billed itself as a legitimate news source.
1481123385,f976945e675af877dca10c5a244d6ba3,AcceptabilityJudgment,277,0,filler-110,80,NULL,7,NULL,11951
1481123385,f976945e675af877dca10c5a244d6ba3,AcceptabilityJudgment,134,0,amethyst-3,20,div%2Cp%2CContext: The new labor law adressed the issue of over-working student interns.%2Cp%2CTarget: The industrious schoolboy said that it usually allowed himself to take a break from archiving.
1481123385,f976945e675af877dca10c5a244d6ba3,AcceptabilityJudgment,134,0,amethyst-3,20,NULL,4,NULL,17639
1481123385,f976945e675af877dca10c5a244d6ba3,AcceptabilityJudgment,270,0,filler-110,73,div%2Cp%2CContext: Many critics were surprised that the novel so clearly referenced the author's troubled home life.%2Cp%2CTarget: The publicist insists that it clearly shows itself to be a phenomenal work of art.
1481123385,f976945e675af877dca10c5a244d6ba3,AcceptabilityJudgment,270,0,filler-110,73,NULL,6,NULL,10463
1481123385,f976945e675af877dca10c5a244d6ba3,AcceptabilityJudgment,265,0,filler-110,68,div%2Cp%2CContext: At a consultation with a tax attorney%2C I complained about how high property taxes are.%2Cp%2CTarget: The accountant replied that I could save myself a lot of money by diversifying my interests.
1481123385,f976945e675af877dca10c5a244d6ba3,AcceptabilityJudgment,265,0,filler-110,68,NULL,7,NULL,13660
1481123385,f976945e675af877dca10c5a244d6ba3,AcceptabilityJudgment,141,0,amethyst-4,21,div%2Cp%2CContext: The newspaper was concerned with the accuracy of some of the statements made to the public.%2Cp%2CTarget: The trustworthy policewoman reported that it roundly criticized himself for the error during the trial.
1481123385,f976945e675af877dca10c5a244d6ba3,AcceptabilityJudgment,141,0,amethyst-4,21,NULL,2,NULL,11506
1481123385,f976945e675af877dca10c5a244d6ba3,AcceptabilityJudgment,245,0,filler-100,48,div%2Cp%2CContext: A gardener was doing some shopping at Home Depot today.%2Cp%2CTarget: The contractor wondered if the gardener%2C who loves tulips%2C had met anyone at the nursery.
1481123385,f976945e675af877dca10c5a244d6ba3,AcceptabilityJudgment,245,0,filler-100,48,NULL,6,NULL,8607
1481123385,f976945e675af877dca10c5a244d6ba3,AcceptabilityJudgment,275,0,filler-110,78,div%2Cp%2CContext: A new talkshow is slated to make its debut on TV this fall.%2Cp%2CTarget: The radiohost complained that it has been shamelessly promoting itself on every channel for the last year.
1481123385,f976945e675af877dca10c5a244d6ba3,AcceptabilityJudgment,275,0,filler-110,78,NULL,2,NULL,10181
1481123385,f976945e675af877dca10c5a244d6ba3,AcceptabilityJudgment,191,0,amethyst-6,29,div%2Cp%2CContext: The district court held meetings with senators in DC.%2Cp%2CTarget: The female senator overheard that it would definitely appoint himself as the new county commissioner before the election.
1481123385,f976945e675af877dca10c5a244d6ba3,AcceptabilityJudgment,191,0,amethyst-6,29,NULL,2,NULL,16817
1481123385,f976945e675af877dca10c5a244d6ba3,AcceptabilityJudgment,287,0,filler-110,90,div%2Cp%2CContext: At a baseball game last weekend%2C I caught a fly ball hit into the stands.%2Cp%2CTarget: The concession salesman was impressed that I hadn't hurt my hand in the attempt.
1481123385,f976945e675af877dca10c5a244d6ba3,AcceptabilityJudgment,287,0,filler-110,90,NULL,7,NULL,12224
1481123385,f976945e675af877dca10c5a244d6ba3,AcceptabilityJudgment,301,0,filler-110,104,div%2Cp%2CContext: During storytime%2C the kindergarten teacher told the children a fairytale about a witch and a princess.%2Cp%2CTarget: The worried mother complained that it might give her daughter nightmares.
1481123385,f976945e675af877dca10c5a244d6ba3,AcceptabilityJudgment,301,0,filler-110,104,NULL,7,NULL,9470
1481123385,f976945e675af877dca10c5a244d6ba3,AcceptabilityJudgment,227,0,amethyst-6,35,div%2Cp%2CContext: An internal report was known to have an uncompromising view on business ethics.%2Cp%2CTarget: The glamorous supermodel heard that it uncharitably blamed himself for all the compromises made on the way to the top.
1481123385,f976945e675af877dca10c5a244d6ba3,AcceptabilityJudgment,227,0,amethyst-6,35,NULL,1,NULL,10784
1481123385,f976945e675af877dca10c5a244d6ba3,AcceptabilityJudgment,297,0,filler-110,100,div%2Cp%2CContext: The catchy new song was repeatedly played on just about every radio station.%2Cp%2CTarget: The talkshow host complained that it got stuck in his head almost every day.
1481123385,f976945e675af877dca10c5a244d6ba3,AcceptabilityJudgment,297,0,filler-110,100,NULL,7,NULL,9430
1481123385,f976945e675af877dca10c5a244d6ba3,AcceptabilityJudgment,269,0,filler-110,72,div%2Cp%2CContext: I've never been to a protest or rally in my life.%2Cp%2CTarget: The FBI agent said that I cleared myself of wrongdoing by being so thoroughly a-political.
1481123385,f976945e675af877dca10c5a244d6ba3,AcceptabilityJudgment,269,0,filler-110,72,NULL,6,NULL,11110
1481123385,f976945e675af877dca10c5a244d6ba3,AcceptabilityJudgment,91,0,amethyst-2,13,div%2Cp%2CContext: A few passersby provided evidence in the case of the hit-and-run.%2Cp%2CTarget: The honest mailman noticed that Lauren clearly implicated herself in the accident that happened in the driveway.
1481123385,f976945e675af877dca10c5a244d6ba3,AcceptabilityJudgment,91,0,amethyst-2,13,NULL,4,NULL,11673
1481123385,f976945e675af877dca10c5a244d6ba3,AcceptabilityJudgment,280,0,filler-110,83,div%2Cp%2CContext: While still learning to climb%2C the baby orangutang fell from a dangerously high branch.%2Cp%2CTarget: The field biologist was very happy that it managed to catch itself on the way down.
1481123385,f976945e675af877dca10c5a244d6ba3,AcceptabilityJudgment,280,0,filler-110,83,NULL,7,NULL,7686
1481123385,f976945e675af877dca10c5a244d6ba3,AcceptabilityJudgment,263,0,filler-110,66,div%2Cp%2CContext: In a job interview for a conservative law firm%2C I made the mistake of talking about my ties to the communist party.%2Cp%2CTarget: The officious interviewer disliked that I aligned myself so closely with such left-leaning policies.
1481123385,f976945e675af877dca10c5a244d6ba3,AcceptabilityJudgment,263,0,filler-110,66,NULL,6,NULL,12917
1481123385,f976945e675af877dca10c5a244d6ba3,AcceptabilityJudgment,220,0,amethyst-5,34,div%2Cp%2CContext: A self-help book encouraged gambling addicts to take up exercising to avoid temptation.%2Cp%2CTarget: The rich CEO perceived that it barely prevented himself from losing any more money at the casino.
1481123385,f976945e675af877dca10c5a244d6ba3,AcceptabilityJudgment,220,0,amethyst-5,34,NULL,3,NULL,8614
1481123385,f976945e675af877dca10c5a244d6ba3,AcceptabilityJudgment,236,0,filler-100,39,div%2Cp%2CContext: After the big brawl%2C there was actually only one student who had gotten in trouble.%2Cp%2CTarget: The principal wanted to know who the student%2C who was expelled%2C had threatened with a knife.
1481123385,f976945e675af877dca10c5a244d6ba3,AcceptabilityJudgment,236,0,filler-100,39,NULL,6,NULL,5380
1481123385,f976945e675af877dca10c5a244d6ba3,AcceptabilityJudgment,253,0,filler-100,56,div%2Cp%2CContext: One hacker worked on her own to launch an attack on the government.%2Cp%2CTarget: The reporter wanted to know if the hacker%2C who coded the software%2C had attacked the NSA with a virus.
1481123385,f976945e675af877dca10c5a244d6ba3,AcceptabilityJudgment,253,0,filler-100,56,NULL,6,NULL,9036
1481123385,f976945e675af877dca10c5a244d6ba3,AcceptabilityJudgment,127,0,amethyst-2,19,div%2Cp%2CContext: The budding actor came up in a recent conversation about signing deals with movie labels.%2Cp%2CTarget: The high-heeled publicist insisted that Michael had irreversibly committed himself to four years with the film studio.
1481123385,f976945e675af877dca10c5a244d6ba3,AcceptabilityJudgment,127,0,amethyst-2,19,NULL,7,NULL,10807
1481123385,f976945e675af877dca10c5a244d6ba3,AcceptabilityJudgment,281,0,filler-110,84,div%2Cp%2CContext: Japanese inventors recently announced that a new robot can perform complex feats of gymnastics.%2Cp%2CTarget: An impressed reporter looked on while it flipped itself off the edge of a balcony and onto a delicate balance beam below.
1481123385,f976945e675af877dca10c5a244d6ba3,AcceptabilityJudgment,281,0,filler-110,84,NULL,6,NULL,17224
1481123385,f976945e675af877dca10c5a244d6ba3,AcceptabilityJudgment,300,0,filler-110,103,div%2Cp%2CContext: The office memo scared everyone who was worried about possible downsizing.%2Cp%2CTarget: The flighty secretary admitted that it might contain information about who would be fired.
1481123385,f976945e675af877dca10c5a244d6ba3,AcceptabilityJudgment,300,0,filler-110,103,NULL,6,NULL,11136
1481123385,f976945e675af877dca10c5a244d6ba3,AcceptabilityJudgment,112,0,amethyst-5,16,div%2Cp%2CContext: An incriminating photo caused a bit of a stir in the library.%2Cp%2CTarget: The shy schoolgirl found out that it had thoroughly embarrassed herself in the cafeteria during lunch.
1481123385,f976945e675af877dca10c5a244d6ba3,AcceptabilityJudgment,112,0,amethyst-5,16,NULL,2,NULL,37124
1481123385,f976945e675af877dca10c5a244d6ba3,AcceptabilityJudgment,289,0,filler-110,92,div%2Cp%2CContext: I believed that Santa was real until I was sixteen years old.%2Cp%2CTarget: The other girls at school couldn't believe that I could be so naive.
1481123385,f976945e675af877dca10c5a244d6ba3,AcceptabilityJudgment,289,0,filler-110,92,NULL,7,NULL,4326
1481123385,f976945e675af877dca10c5a244d6ba3,AcceptabilityJudgment,242,0,filler-100,45,div%2Cp%2CContext: Some audience members were really being difficult during much of the show this evening.%2Cp%2CTarget: The singer didn't know who the audience member who laughed out loud was heckling during the show.
1481123385,f976945e675af877dca10c5a244d6ba3,AcceptabilityJudgment,242,0,filler-100,45,NULL,6,NULL,13716
1481123385,f976945e675af877dca10c5a244d6ba3,AcceptabilityJudgment,199,0,amethyst-2,31,div%2Cp%2CContext: One of the informants uncovered the possibility of police corruption.%2Cp%2CTarget: The undercover policewoman saw that Zachary had evidently recorded himself talking about the secret plot.
1481123385,f976945e675af877dca10c5a244d6ba3,AcceptabilityJudgment,199,0,amethyst-2,31,NULL,6,NULL,5420
1481123385,f976945e675af877dca10c5a244d6ba3,AcceptabilityJudgment,257,0,filler-100,60,div%2Cp%2CContext: One customer in the cafe seemed to spend all day there.%2Cp%2CTarget: The barista wondered if the customer%2C who ordered a decaf latte%2C was meeting someone in the cafe.
1481123385,f976945e675af877dca10c5a244d6ba3,AcceptabilityJudgment,257,0,filler-100,60,NULL,7,NULL,8804
1481123385,f976945e675af877dca10c5a244d6ba3,AcceptabilityJudgment,260,0,filler-110,63,div%2Cp%2CContext: In a recent half marathon in San Diego%2C I finished dead last.%2Cp%2CTarget: The emergency nurse insisted I hadn't emasculated myself despite taking over eight hours to finish.
1481123385,f976945e675af877dca10c5a244d6ba3,AcceptabilityJudgment,260,0,filler-110,63,NULL,5,NULL,5843
1481123385,f976945e675af877dca10c5a244d6ba3,AcceptabilityJudgment,40,0,amethyst-5,4,div%2Cp%2CContext: In a highly contentious criminal case%2C the testimony was frequently misquoted.%2Cp%2CTarget: The female witness overheard that it completely misrepresented herself in the trial but the jury didn't buy it.
1481123385,f976945e675af877dca10c5a244d6ba3,AcceptabilityJudgment,40,0,amethyst-5,4,NULL,2,NULL,15637
1481123385,f976945e675af877dca10c5a244d6ba3,AcceptabilityJudgment,258,0,filler-110,61,div%2Cp%2CContext: In a widely publicized television debate%2C I argued with several religious leaders about the reliability of scientific evidence.%2Cp%2CTarget: The evangelical pastor insisted that I clearly betrayed myself with comments about the scientific method.
1481123385,f976945e675af877dca10c5a244d6ba3,AcceptabilityJudgment,258,0,filler-110,61,NULL,5,NULL,23779
1481123385,f976945e675af877dca10c5a244d6ba3,AcceptabilityJudgment,238,0,filler-100,41,div%2Cp%2CContext: This town has many very well-qualified contractors that you could hire.%2Cp%2CTarget: The homeowner asked who the contractor who fixed the roof would hire for the next job.
1481123385,f976945e675af877dca10c5a244d6ba3,AcceptabilityJudgment,238,0,filler-100,41,NULL,7,NULL,4752
1481123385,f976945e675af877dca10c5a244d6ba3,AcceptabilityJudgment,148,0,amethyst-5,22,div%2Cp%2CContext: A formal complaint mentioned an unpleasant incident on set yesterday.%2Cp%2CTarget: The talented director overheard that it uncharitably described himself as cruel and abusive in the workplace.
1481123385,f976945e675af877dca10c5a244d6ba3,AcceptabilityJudgment,148,0,amethyst-5,22,NULL,2,NULL,5015
1481123385,f976945e675af877dca10c5a244d6ba3,AcceptabilityJudgment,250,0,filler-100,53,div%2Cp%2CContext: The neighboring city has some really excellent butchers.%2Cp%2CTarget: Joan didn't remember who the butcher who sold organic beef had hired to deliver his meat.
1481123385,f976945e675af877dca10c5a244d6ba3,AcceptabilityJudgment,250,0,filler-100,53,NULL,6,NULL,5432
1481123385,f976945e675af877dca10c5a244d6ba3,AcceptabilityJudgment,305,0,filler-110,108,div%2Cp%2CContext: The rose garden at the palace of Versailles is reportedly one of the most beautiful in the world.%2Cp%2CTarget: The wealthy heiress insisted that it would be the perfect spot for her wedding.
1481123385,f976945e675af877dca10c5a244d6ba3,AcceptabilityJudgment,305,0,filler-110,108,NULL,7,NULL,4206
1481123385,f976945e675af877dca10c5a244d6ba3,AcceptabilityJudgment,119,0,amethyst-6,17,div%2Cp%2CContext: An advertisement was extremely complimentary of the recently released classical music album.%2Cp%2CTarget: The somber minister saw that it shamelessly promoted herself as a famous musician in the making.
1481123385,f976945e675af877dca10c5a244d6ba3,AcceptabilityJudgment,119,0,amethyst-6,17,NULL,2,NULL,13391
1481123385,f976945e675af877dca10c5a244d6ba3,AcceptabilityJudgment,268,0,filler-110,71,div%2Cp%2CContext: Unlike many people%2C I don't enjoy scary rides at amusement parks.%2Cp%2CTarget: The concession stand employee agreed that I should confine myself to eating popsicles all day instead.
1481123385,f976945e675af877dca10c5a244d6ba3,AcceptabilityJudgment,268,0,filler-110,71,NULL,6,NULL,5351
1481123385,f976945e675af877dca10c5a244d6ba3,AcceptabilityJudgment,234,0,filler-100,37,div%2Cp%2CContext: A lot of really interesting customers came into the butcher shop today.%2Cp%2CTarget: The butcher asked who the customer who bought Italian sausage had invited to dinner tonight.
1481123385,f976945e675af877dca10c5a244d6ba3,AcceptabilityJudgment,234,0,filler-100,37,NULL,6,NULL,6118
1481123385,f976945e675af877dca10c5a244d6ba3,AcceptabilityJudgment,155,0,amethyst-6,23,div%2Cp%2CContext: The notoriously liberal magazine had been harping on the issue of immigration reform for a long while.%2Cp%2CTarget: The dutiful receptionist got word that it maliciously misrepresented himself to young voters across the country.
1481123385,f976945e675af877dca10c5a244d6ba3,AcceptabilityJudgment,155,0,amethyst-6,23,NULL,2,NULL,14958
1481123385,f976945e675af877dca10c5a244d6ba3,AcceptabilityJudgment,235,0,filler-100,38,div%2Cp%2CContext: At the hospital%2C there are many doctors who routinely work shifts in the ER.%2Cp%2CTarget: The administrator wondered if the doctor who manages the surgery wing had treated anyone in the ER.
1481123385,f976945e675af877dca10c5a244d6ba3,AcceptabilityJudgment,235,0,filler-100,38,NULL,6,NULL,6774
# Columns below this comment are as follows:
# 1. Time results were received.
# 2. MD5 hash of participant's IP address.
# 3. Controller name.
# 4. Item number.
# 5. Element number.
# 6. Type.
# 7. Group.
# 8. Field name.
# 9. Field value.
1481123385,f976945e675af877dca10c5a244d6ba3,Form,5,0,iriTest,NULL,fs1,1
1481123385,f976945e675af877dca10c5a244d6ba3,Form,5,0,iriTest,NULL,ec1,0
1481123385,f976945e675af877dca10c5a244d6ba3,Form,5,0,iriTest,NULL,pt1,0
1481123385,f976945e675af877dca10c5a244d6ba3,Form,5,0,iriTest,NULL,ec2,1
1481123385,f976945e675af877dca10c5a244d6ba3,Form,5,0,iriTest,NULL,fs2,0
1481123385,f976945e675af877dca10c5a244d6ba3,Form,5,0,iriTest,NULL,pd1,1
1481123385,f976945e675af877dca10c5a244d6ba3,Form,5,0,iriTest,NULL,fs3,1
1481123385,f976945e675af877dca10c5a244d6ba3,Form,5,0,iriTest,NULL,pt2,1
1481123385,f976945e675af877dca10c5a244d6ba3,Form,5,0,iriTest,NULL,ec3,2
1481123385,f976945e675af877dca10c5a244d6ba3,Form,5,0,iriTest,NULL,pd2,0
1481123385,f976945e675af877dca10c5a244d6ba3,Form,5,0,iriTest,NULL,pt3,1
1481123385,f976945e675af877dca10c5a244d6ba3,Form,5,0,iriTest,NULL,fs4,0
1481123385,f976945e675af877dca10c5a244d6ba3,Form,5,0,iriTest,NULL,pd3,1
1481123385,f976945e675af877dca10c5a244d6ba3,Form,5,0,iriTest,NULL,ec4,1
1481123385,f976945e675af877dca10c5a244d6ba3,Form,5,0,iriTest,NULL,pt4,0
1481123385,f976945e675af877dca10c5a244d6ba3,Form,5,0,iriTest,NULL,fs5,1
1481123385,f976945e675af877dca10c5a244d6ba3,Form,5,0,iriTest,NULL,pd4,0
1481123385,f976945e675af877dca10c5a244d6ba3,Form,5,0,iriTest,NULL,ec5,1
1481123385,f976945e675af877dca10c5a244d6ba3,Form,5,0,iriTest,NULL,pd5,0
1481123385,f976945e675af877dca10c5a244d6ba3,Form,5,0,iriTest,NULL,ec6,1
1481123385,f976945e675af877dca10c5a244d6ba3,Form,5,0,iriTest,NULL,pt5,0
1481123385,f976945e675af877dca10c5a244d6ba3,Form,5,0,iriTest,NULL,ec7,0
1481123385,f976945e675af877dca10c5a244d6ba3,Form,5,0,iriTest,NULL,fs6,1
1481123385,f976945e675af877dca10c5a244d6ba3,Form,5,0,iriTest,NULL,pd6,0
1481123385,f976945e675af877dca10c5a244d6ba3,Form,5,0,iriTest,NULL,pt6,2
1481123385,f976945e675af877dca10c5a244d6ba3,Form,5,0,iriTest,NULL,fs7,1
1481123385,f976945e675af877dca10c5a244d6ba3,Form,5,0,iriTest,NULL,pd7,0
1481123385,f976945e675af877dca10c5a244d6ba3,Form,5,0,iriTest,NULL,pt7,1
1481123385,f976945e675af877dca10c5a244d6ba3,Form,6,0,exit,NULL,comments,I really enjoyed this study. It really made me think about everything I thought was the correct way to speak. Thank you for letting me participate.
1481123385,f976945e675af877dca10c5a244d6ba3,Form,6,0,exit,NULL,priorExpt,no
1481123385,f976945e675af877dca10c5a244d6ba3,Form,6,0,exit,NULL,priorRefl,no
1481123385,f976945e675af877dca10c5a244d6ba3,Form,6,0,exit,NULL,logLang,no
1481123385,f976945e675af877dca10c5a244d6ba3,Form,6,0,exit,NULL,logContrast,no
1481123385,f976945e675af877dca10c5a244d6ba3,Form,7,0,exit,NULL,randomfield,e5LsNCio
1481123385,f976945e675af877dca10c5a244d6ba3,Form,7,0,exit,NULL,worker_id,A3959BXDXZLWX2
#
# Results on Wednesday December 07 2016 15:23:58 UTC.
# USER AGENT: Mozilla/5.0 (Macintosh; Intel Mac OS X 10_9_5) AppleWebKit/537.36 (KHTML, like Gecko) Chrome/54.0.2840.59 Safari/537.36
# Design number was non-random = 2
#
# Columns below this comment are as follows:
# 1. Time results were received.
# 2. MD5 hash of participant's IP address.
# 3. Controller name.
# 4. Item number.
# 5. Element number.
# 6. Type.
# 7. Group.
# 8. Field name.
# 9. Field value.
1481124239,ace5b242591bdcb3f5b7b8166776b720,Form,2,0,consent,NULL,workerID,
1481124239,ace5b242591bdcb3f5b7b8166776b720,SSForm,4,0,consent,NULL,nLang,English
1481124239,ace5b242591bdcb3f5b7b8166776b720,SSForm,4,0,consent,NULL,pLang,English
1481124239,ace5b242591bdcb3f5b7b8166776b720,SSForm,4,0,consent,NULL,oLang,none
1481124239,ace5b242591bdcb3f5b7b8166776b720,SSForm,4,0,consent,NULL,dLang,English
1481124239,ace5b242591bdcb3f5b7b8166776b720,SSForm,4,0,consent,NULL,gender,female
1481124239,ace5b242591bdcb3f5b7b8166776b720,SSForm,4,0,consent,NULL,age,29
