#
# Results on Monday December 01 2014 22:48:46 UTC.
# USER AGENT: Mozilla/5.0 (Windows NT 6.3; WOW64; rv:33.0) Gecko/20100101 Firefox/33.0
# Design number was non-random = 0
#
# Columns below this comment are as follows:
# 1. Time results were received.
# 2. MD5 hash of participant's IP address.
# 3. Controller name.
# 4. Item number.
# 5. Element number.
# 6. Type.
# 7. Group.
# 8. Field name.
# 9. Field value.
1417474126,3c20c18407e36447800e01f6795c1d0e,Form,1,0,consent,NULL,consent,yes
1417474126,3c20c18407e36447800e01f6795c1d0e,Form,2,0,consent,NULL,age,31
1417474126,3c20c18407e36447800e01f6795c1d0e,Form,2,0,consent,NULL,natlang,English
1417474126,3c20c18407e36447800e01f6795c1d0e,Form,2,0,consent,NULL,state,California
1417474126,3c20c18407e36447800e01f6795c1d0e,Form,2,0,consent,NULL,parentlang,English
1417474126,3c20c18407e36447800e01f6795c1d0e,Form,2,0,consent,NULL,domlang,English
1417474126,3c20c18407e36447800e01f6795c1d0e,Form,2,0,consent,NULL,otherlang,Some French%2C not fluent anymore.
1417474126,3c20c18407e36447800e01f6795c1d0e,Form,2,0,consent,NULL,device,Desktop Computer
1417474126,3c20c18407e36447800e01f6795c1d0e,Form,2,0,consent,NULL,gender,male
# The lines below this comment are in groups of 2.
# The formats of the lines in each of these groups are as follows:
#
# Line 1:
#     Col. 1: Time results were received.
#     Col. 2: MD5 hash of participant's IP address.
#     Col. 3: Controller name.
#     Col. 4: Item number.
#     Col. 5: Element number.
#     Col. 6: Type.
#     Col. 7: Group.
#     Col. 8: Sentence (or sentence MD5).
# Line 2:
#     Col. 1: Time results were received.
#     Col. 2: MD5 hash of participant's IP address.
#     Col. 3: Controller name.
#     Col. 4: Item number.
#     Col. 5: Element number.
#     Col. 6: Type.
#     Col. 7: Group.
#     Col. 8: Question (NULL if none).
#     Col. 9: Answer.
#     Col. 10: Whether or not answer was correct (NULL if N/A).
#     Col. 11: Time taken to answer.
1417474126,3c20c18407e36447800e01f6795c1d0e,AcceptabilityJudgment,9,0,practice,NULL,undefined
1417474126,3c20c18407e36447800e01f6795c1d0e,AcceptabilityJudgment,9,0,practice,NULL,NULL,3,NULL,6589
1417474126,3c20c18407e36447800e01f6795c1d0e,AcceptabilityJudgment,10,0,practice,NULL,undefined
1417474126,3c20c18407e36447800e01f6795c1d0e,AcceptabilityJudgment,10,0,practice,NULL,NULL,6,NULL,5030
1417474126,3c20c18407e36447800e01f6795c1d0e,AcceptabilityJudgment,11,0,practice,NULL,undefined
1417474126,3c20c18407e36447800e01f6795c1d0e,AcceptabilityJudgment,11,0,practice,NULL,NULL,2,NULL,6103
1417474126,3c20c18407e36447800e01f6795c1d0e,AcceptabilityJudgment,12,0,practice,NULL,undefined
1417474126,3c20c18407e36447800e01f6795c1d0e,AcceptabilityJudgment,12,0,practice,NULL,NULL,6,NULL,4400
1417474126,3c20c18407e36447800e01f6795c1d0e,AcceptabilityJudgment,379,0,garnet-6,46,undefined
1417474126,3c20c18407e36447800e01f6795c1d0e,AcceptabilityJudgment,379,0,garnet-6,46,NULL,6,NULL,6658
1417474126,3c20c18407e36447800e01f6795c1d0e,AcceptabilityJudgment,334,0,garnet-1,41,undefined
1417474126,3c20c18407e36447800e01f6795c1d0e,AcceptabilityJudgment,334,0,garnet-1,41,NULL,6,NULL,6952
1417474126,3c20c18407e36447800e01f6795c1d0e,AcceptabilityJudgment,493,0,whint-4,76,undefined
1417474126,3c20c18407e36447800e01f6795c1d0e,AcceptabilityJudgment,493,0,whint-4,76,NULL,5,NULL,4853
1417474126,3c20c18407e36447800e01f6795c1d0e,AcceptabilityJudgment,517,0,filler,88,undefined
1417474126,3c20c18407e36447800e01f6795c1d0e,AcceptabilityJudgment,517,0,filler,88,NULL,6,NULL,6724
1417474126,3c20c18407e36447800e01f6795c1d0e,AcceptabilityJudgment,41,0,garnet-4,4,undefined
1417474126,3c20c18407e36447800e01f6795c1d0e,AcceptabilityJudgment,41,0,garnet-4,4,NULL,5,NULL,8499
1417474126,3c20c18407e36447800e01f6795c1d0e,AcceptabilityJudgment,77,0,garnet-8,8,undefined
1417474126,3c20c18407e36447800e01f6795c1d0e,AcceptabilityJudgment,77,0,garnet-8,8,NULL,4,NULL,12037
1417474126,3c20c18407e36447800e01f6795c1d0e,AcceptabilityJudgment,494,0,whint-1,77,undefined
1417474126,3c20c18407e36447800e01f6795c1d0e,AcceptabilityJudgment,494,0,whint-1,77,NULL,3,NULL,9573
1417474126,3c20c18407e36447800e01f6795c1d0e,AcceptabilityJudgment,520,0,filler,91,undefined
1417474126,3c20c18407e36447800e01f6795c1d0e,AcceptabilityJudgment,520,0,filler,91,NULL,4,NULL,12508
1417474126,3c20c18407e36447800e01f6795c1d0e,AcceptabilityJudgment,388,0,garnet-7,47,undefined
1417474126,3c20c18407e36447800e01f6795c1d0e,AcceptabilityJudgment,388,0,garnet-7,47,NULL,4,NULL,14253
1417474126,3c20c18407e36447800e01f6795c1d0e,AcceptabilityJudgment,324,0,garnet-7,39,undefined
1417474126,3c20c18407e36447800e01f6795c1d0e,AcceptabilityJudgment,324,0,garnet-7,39,NULL,2,NULL,11342
1417474126,3c20c18407e36447800e01f6795c1d0e,AcceptabilityJudgment,414,0,whint-1,57,undefined
1417474126,3c20c18407e36447800e01f6795c1d0e,AcceptabilityJudgment,414,0,whint-1,57,NULL,3,NULL,5919
1417474126,3c20c18407e36447800e01f6795c1d0e,AcceptabilityJudgment,288,0,garnet-3,35,undefined
1417474126,3c20c18407e36447800e01f6795c1d0e,AcceptabilityJudgment,288,0,garnet-3,35,NULL,3,NULL,9596
1417474126,3c20c18407e36447800e01f6795c1d0e,AcceptabilityJudgment,405,0,mauner-2,52,undefined
1417474126,3c20c18407e36447800e01f6795c1d0e,AcceptabilityJudgment,405,0,mauner-2,52,NULL,6,NULL,8782
1417474126,3c20c18407e36447800e01f6795c1d0e,AcceptabilityJudgment,510,0,filler,81,undefined
1417474126,3c20c18407e36447800e01f6795c1d0e,AcceptabilityJudgment,510,0,filler,81,NULL,2,NULL,10561
1417474126,3c20c18407e36447800e01f6795c1d0e,AcceptabilityJudgment,233,0,garnet-4,28,undefined
1417474126,3c20c18407e36447800e01f6795c1d0e,AcceptabilityJudgment,233,0,garnet-4,28,NULL,4,NULL,9862
1417474126,3c20c18407e36447800e01f6795c1d0e,AcceptabilityJudgment,419,0,whint-2,58,undefined
1417474126,3c20c18407e36447800e01f6795c1d0e,AcceptabilityJudgment,419,0,whint-2,58,NULL,6,NULL,9387
1417474126,3c20c18407e36447800e01f6795c1d0e,AcceptabilityJudgment,114,0,garnet-5,13,undefined
1417474126,3c20c18407e36447800e01f6795c1d0e,AcceptabilityJudgment,114,0,garnet-5,13,NULL,7,NULL,12316
1417474126,3c20c18407e36447800e01f6795c1d0e,AcceptabilityJudgment,518,0,filler,89,undefined
1417474126,3c20c18407e36447800e01f6795c1d0e,AcceptabilityJudgment,518,0,filler,89,NULL,6,NULL,24236
1417474126,3c20c18407e36447800e01f6795c1d0e,AcceptabilityJudgment,196,0,garnet-7,23,undefined
1417474126,3c20c18407e36447800e01f6795c1d0e,AcceptabilityJudgment,196,0,garnet-7,23,NULL,3,NULL,7773
1417474126,3c20c18407e36447800e01f6795c1d0e,AcceptabilityJudgment,504,0,whint-3,79,undefined
1417474126,3c20c18407e36447800e01f6795c1d0e,AcceptabilityJudgment,504,0,whint-3,79,NULL,5,NULL,7813
1417474126,3c20c18407e36447800e01f6795c1d0e,AcceptabilityJudgment,87,0,garnet-2,10,undefined
1417474126,3c20c18407e36447800e01f6795c1d0e,AcceptabilityJudgment,87,0,garnet-2,10,NULL,7,NULL,8342
1417474126,3c20c18407e36447800e01f6795c1d0e,AcceptabilityJudgment,526,0,filler,97,undefined
1417474126,3c20c18407e36447800e01f6795c1d0e,AcceptabilityJudgment,526,0,filler,97,NULL,7,NULL,5678
1417474126,3c20c18407e36447800e01f6795c1d0e,AcceptabilityJudgment,23,0,garnet-2,2,undefined
1417474126,3c20c18407e36447800e01f6795c1d0e,AcceptabilityJudgment,23,0,garnet-2,2,NULL,4,NULL,17047
1417474126,3c20c18407e36447800e01f6795c1d0e,AcceptabilityJudgment,424,0,whint-3,59,undefined
1417474126,3c20c18407e36447800e01f6795c1d0e,AcceptabilityJudgment,424,0,whint-3,59,NULL,5,NULL,5962
1417474126,3c20c18407e36447800e01f6795c1d0e,AcceptabilityJudgment,410,0,mauner-1,55,undefined
1417474126,3c20c18407e36447800e01f6795c1d0e,AcceptabilityJudgment,410,0,mauner-1,55,NULL,6,NULL,11131
1417474126,3c20c18407e36447800e01f6795c1d0e,AcceptabilityJudgment,141,0,garnet-8,16,undefined
1417474126,3c20c18407e36447800e01f6795c1d0e,AcceptabilityJudgment,141,0,garnet-8,16,NULL,2,NULL,30635
1417474126,3c20c18407e36447800e01f6795c1d0e,AcceptabilityJudgment,297,0,garnet-4,36,undefined
1417474126,3c20c18407e36447800e01f6795c1d0e,AcceptabilityJudgment,297,0,garnet-4,36,NULL,1,NULL,26533
1417474126,3c20c18407e36447800e01f6795c1d0e,AcceptabilityJudgment,478,0,whint-1,73,undefined
1417474126,3c20c18407e36447800e01f6795c1d0e,AcceptabilityJudgment,478,0,whint-1,73,NULL,5,NULL,10132
1417474126,3c20c18407e36447800e01f6795c1d0e,AcceptabilityJudgment,519,0,filler,90,undefined
1417474126,3c20c18407e36447800e01f6795c1d0e,AcceptabilityJudgment,519,0,filler,90,NULL,6,NULL,8847
1417474126,3c20c18407e36447800e01f6795c1d0e,AcceptabilityJudgment,333,0,garnet-8,40,undefined
1417474126,3c20c18407e36447800e01f6795c1d0e,AcceptabilityJudgment,333,0,garnet-8,40,NULL,3,NULL,6669
1417474126,3c20c18407e36447800e01f6795c1d0e,AcceptabilityJudgment,205,0,garnet-8,24,undefined
1417474126,3c20c18407e36447800e01f6795c1d0e,AcceptabilityJudgment,205,0,garnet-8,24,NULL,2,NULL,12735
1417474126,3c20c18407e36447800e01f6795c1d0e,AcceptabilityJudgment,462,0,whint-1,69,undefined
1417474126,3c20c18407e36447800e01f6795c1d0e,AcceptabilityJudgment,462,0,whint-1,69,NULL,6,NULL,9968
1417474126,3c20c18407e36447800e01f6795c1d0e,AcceptabilityJudgment,522,0,filler,93,undefined
1417474126,3c20c18407e36447800e01f6795c1d0e,AcceptabilityJudgment,522,0,filler,93,NULL,7,NULL,10373
1417474126,3c20c18407e36447800e01f6795c1d0e,AcceptabilityJudgment,224,0,garnet-3,27,undefined
1417474126,3c20c18407e36447800e01f6795c1d0e,AcceptabilityJudgment,224,0,garnet-3,27,NULL,3,NULL,9090
1417474126,3c20c18407e36447800e01f6795c1d0e,AcceptabilityJudgment,169,0,garnet-4,20,undefined
1417474126,3c20c18407e36447800e01f6795c1d0e,AcceptabilityJudgment,169,0,garnet-4,20,NULL,5,NULL,11853
1417474126,3c20c18407e36447800e01f6795c1d0e,AcceptabilityJudgment,461,0,whint-4,68,undefined
1417474126,3c20c18407e36447800e01f6795c1d0e,AcceptabilityJudgment,461,0,whint-4,68,NULL,6,NULL,9132
1417474126,3c20c18407e36447800e01f6795c1d0e,AcceptabilityJudgment,269,0,garnet-8,32,undefined
1417474126,3c20c18407e36447800e01f6795c1d0e,AcceptabilityJudgment,269,0,garnet-8,32,NULL,4,NULL,9124
1417474126,3c20c18407e36447800e01f6795c1d0e,AcceptabilityJudgment,398,0,mauner-1,49,undefined
1417474126,3c20c18407e36447800e01f6795c1d0e,AcceptabilityJudgment,398,0,mauner-1,49,NULL,7,NULL,6430
1417474126,3c20c18407e36447800e01f6795c1d0e,AcceptabilityJudgment,516,0,filler,87,undefined
1417474126,3c20c18407e36447800e01f6795c1d0e,AcceptabilityJudgment,516,0,filler,87,NULL,7,NULL,9834
1417474126,3c20c18407e36447800e01f6795c1d0e,AcceptabilityJudgment,59,0,garnet-6,6,undefined
1417474126,3c20c18407e36447800e01f6795c1d0e,AcceptabilityJudgment,59,0,garnet-6,6,NULL,6,NULL,7046
1417474126,3c20c18407e36447800e01f6795c1d0e,AcceptabilityJudgment,483,0,whint-2,74,undefined
1417474126,3c20c18407e36447800e01f6795c1d0e,AcceptabilityJudgment,483,0,whint-2,74,NULL,5,NULL,9215
1417474126,3c20c18407e36447800e01f6795c1d0e,AcceptabilityJudgment,187,0,garnet-6,22,undefined
1417474126,3c20c18407e36447800e01f6795c1d0e,AcceptabilityJudgment,187,0,garnet-6,22,NULL,4,NULL,13397
1417474126,3c20c18407e36447800e01f6795c1d0e,AcceptabilityJudgment,529,0,filler,100,undefined
1417474126,3c20c18407e36447800e01f6795c1d0e,AcceptabilityJudgment,529,0,filler,100,NULL,6,NULL,8299
1417474126,3c20c18407e36447800e01f6795c1d0e,AcceptabilityJudgment,270,0,garnet-1,33,undefined
1417474126,3c20c18407e36447800e01f6795c1d0e,AcceptabilityJudgment,270,0,garnet-1,33,NULL,7,NULL,8104
1417474126,3c20c18407e36447800e01f6795c1d0e,AcceptabilityJudgment,499,0,whint-2,78,undefined
1417474126,3c20c18407e36447800e01f6795c1d0e,AcceptabilityJudgment,499,0,whint-2,78,NULL,4,NULL,8340
1417474126,3c20c18407e36447800e01f6795c1d0e,AcceptabilityJudgment,306,0,garnet-5,37,undefined
1417474126,3c20c18407e36447800e01f6795c1d0e,AcceptabilityJudgment,306,0,garnet-5,37,NULL,5,NULL,10458
1417474126,3c20c18407e36447800e01f6795c1d0e,AcceptabilityJudgment,528,0,filler,99,undefined
1417474126,3c20c18407e36447800e01f6795c1d0e,AcceptabilityJudgment,528,0,filler,99,NULL,6,NULL,6900
1417474126,3c20c18407e36447800e01f6795c1d0e,AcceptabilityJudgment,279,0,garnet-2,34,undefined
1417474126,3c20c18407e36447800e01f6795c1d0e,AcceptabilityJudgment,279,0,garnet-2,34,NULL,3,NULL,14926
1417474126,3c20c18407e36447800e01f6795c1d0e,AcceptabilityJudgment,446,0,whint-1,65,undefined
1417474126,3c20c18407e36447800e01f6795c1d0e,AcceptabilityJudgment,446,0,whint-1,65,NULL,2,NULL,10335
1417474126,3c20c18407e36447800e01f6795c1d0e,AcceptabilityJudgment,14,0,garnet-1,1,undefined
1417474126,3c20c18407e36447800e01f6795c1d0e,AcceptabilityJudgment,14,0,garnet-1,1,NULL,5,NULL,9565
1417474126,3c20c18407e36447800e01f6795c1d0e,AcceptabilityJudgment,413,0,mauner-2,56,undefined
1417474126,3c20c18407e36447800e01f6795c1d0e,AcceptabilityJudgment,413,0,mauner-2,56,NULL,7,NULL,7932
1417474126,3c20c18407e36447800e01f6795c1d0e,AcceptabilityJudgment,132,0,garnet-7,15,undefined
1417474126,3c20c18407e36447800e01f6795c1d0e,AcceptabilityJudgment,132,0,garnet-7,15,NULL,6,NULL,12767
1417474126,3c20c18407e36447800e01f6795c1d0e,AcceptabilityJudgment,467,0,whint-2,70,undefined
1417474126,3c20c18407e36447800e01f6795c1d0e,AcceptabilityJudgment,467,0,whint-2,70,NULL,5,NULL,9950
1417474126,3c20c18407e36447800e01f6795c1d0e,AcceptabilityJudgment,524,0,filler,95,undefined
1417474126,3c20c18407e36447800e01f6795c1d0e,AcceptabilityJudgment,524,0,filler,95,NULL,7,NULL,5881
1417474126,3c20c18407e36447800e01f6795c1d0e,AcceptabilityJudgment,397,0,garnet-8,48,undefined
1417474126,3c20c18407e36447800e01f6795c1d0e,AcceptabilityJudgment,397,0,garnet-8,48,NULL,3,NULL,7195
1417474126,3c20c18407e36447800e01f6795c1d0e,AcceptabilityJudgment,96,0,garnet-3,11,undefined
1417474126,3c20c18407e36447800e01f6795c1d0e,AcceptabilityJudgment,96,0,garnet-3,11,NULL,4,NULL,10812
1417474126,3c20c18407e36447800e01f6795c1d0e,AcceptabilityJudgment,451,0,whint-2,66,undefined
1417474126,3c20c18407e36447800e01f6795c1d0e,AcceptabilityJudgment,451,0,whint-2,66,NULL,3,NULL,7299
1417474126,3c20c18407e36447800e01f6795c1d0e,AcceptabilityJudgment,515,0,filler,86,undefined
1417474126,3c20c18407e36447800e01f6795c1d0e,AcceptabilityJudgment,515,0,filler,86,NULL,6,NULL,11109
1417474126,3c20c18407e36447800e01f6795c1d0e,AcceptabilityJudgment,315,0,garnet-6,38,undefined
1417474126,3c20c18407e36447800e01f6795c1d0e,AcceptabilityJudgment,315,0,garnet-6,38,NULL,5,NULL,18405
1417474126,3c20c18407e36447800e01f6795c1d0e,AcceptabilityJudgment,215,0,garnet-2,26,undefined
1417474126,3c20c18407e36447800e01f6795c1d0e,AcceptabilityJudgment,215,0,garnet-2,26,NULL,4,NULL,9414
1417474126,3c20c18407e36447800e01f6795c1d0e,AcceptabilityJudgment,456,0,whint-3,67,undefined
1417474126,3c20c18407e36447800e01f6795c1d0e,AcceptabilityJudgment,456,0,whint-3,67,NULL,6,NULL,10790
1417474126,3c20c18407e36447800e01f6795c1d0e,AcceptabilityJudgment,409,0,mauner-2,54,undefined
1417474126,3c20c18407e36447800e01f6795c1d0e,AcceptabilityJudgment,409,0,mauner-2,54,NULL,7,NULL,6725
1417474126,3c20c18407e36447800e01f6795c1d0e,AcceptabilityJudgment,242,0,garnet-5,29,undefined
1417474126,3c20c18407e36447800e01f6795c1d0e,AcceptabilityJudgment,242,0,garnet-5,29,NULL,4,NULL,11335
1417474126,3c20c18407e36447800e01f6795c1d0e,AcceptabilityJudgment,521,0,filler,92,undefined
1417474126,3c20c18407e36447800e01f6795c1d0e,AcceptabilityJudgment,521,0,filler,92,NULL,5,NULL,14528
1417474126,3c20c18407e36447800e01f6795c1d0e,AcceptabilityJudgment,352,0,garnet-3,43,undefined
1417474126,3c20c18407e36447800e01f6795c1d0e,AcceptabilityJudgment,352,0,garnet-3,43,NULL,3,NULL,7985
1417474126,3c20c18407e36447800e01f6795c1d0e,AcceptabilityJudgment,445,0,whint-4,64,undefined
1417474126,3c20c18407e36447800e01f6795c1d0e,AcceptabilityJudgment,445,0,whint-4,64,NULL,6,NULL,9509
1417474126,3c20c18407e36447800e01f6795c1d0e,AcceptabilityJudgment,105,0,garnet-4,12,undefined
1417474126,3c20c18407e36447800e01f6795c1d0e,AcceptabilityJudgment,105,0,garnet-4,12,NULL,4,NULL,20369
1417474126,3c20c18407e36447800e01f6795c1d0e,AcceptabilityJudgment,525,0,filler,96,undefined
1417474126,3c20c18407e36447800e01f6795c1d0e,AcceptabilityJudgment,525,0,filler,96,NULL,3,NULL,10165
1417474126,3c20c18407e36447800e01f6795c1d0e,AcceptabilityJudgment,260,0,garnet-7,31,undefined
1417474126,3c20c18407e36447800e01f6795c1d0e,AcceptabilityJudgment,260,0,garnet-7,31,NULL,2,NULL,10323
1417474126,3c20c18407e36447800e01f6795c1d0e,AcceptabilityJudgment,429,0,whint-4,60,undefined
1417474126,3c20c18407e36447800e01f6795c1d0e,AcceptabilityJudgment,429,0,whint-4,60,NULL,6,NULL,6437
1417474126,3c20c18407e36447800e01f6795c1d0e,AcceptabilityJudgment,78,0,garnet-1,9,undefined
1417474126,3c20c18407e36447800e01f6795c1d0e,AcceptabilityJudgment,78,0,garnet-1,9,NULL,5,NULL,17834
1417474126,3c20c18407e36447800e01f6795c1d0e,AcceptabilityJudgment,160,0,garnet-3,19,undefined
1417474126,3c20c18407e36447800e01f6795c1d0e,AcceptabilityJudgment,160,0,garnet-3,19,NULL,3,NULL,12088
1417474126,3c20c18407e36447800e01f6795c1d0e,AcceptabilityJudgment,477,0,whint-4,72,undefined
1417474126,3c20c18407e36447800e01f6795c1d0e,AcceptabilityJudgment,477,0,whint-4,72,NULL,6,NULL,8508
1417474126,3c20c18407e36447800e01f6795c1d0e,AcceptabilityJudgment,401,0,mauner-2,50,undefined
1417474126,3c20c18407e36447800e01f6795c1d0e,AcceptabilityJudgment,401,0,mauner-2,50,NULL,6,NULL,9884
1417474126,3c20c18407e36447800e01f6795c1d0e,AcceptabilityJudgment,511,0,filler,82,undefined
1417474126,3c20c18407e36447800e01f6795c1d0e,AcceptabilityJudgment,511,0,filler,82,NULL,5,NULL,14180
1417474126,3c20c18407e36447800e01f6795c1d0e,AcceptabilityJudgment,50,0,garnet-5,5,undefined
1417474126,3c20c18407e36447800e01f6795c1d0e,AcceptabilityJudgment,50,0,garnet-5,5,NULL,4,NULL,9197
1417474126,3c20c18407e36447800e01f6795c1d0e,AcceptabilityJudgment,123,0,garnet-6,14,undefined
1417474126,3c20c18407e36447800e01f6795c1d0e,AcceptabilityJudgment,123,0,garnet-6,14,NULL,3,NULL,15943
1417474126,3c20c18407e36447800e01f6795c1d0e,AcceptabilityJudgment,440,0,whint-3,63,undefined
1417474126,3c20c18407e36447800e01f6795c1d0e,AcceptabilityJudgment,440,0,whint-3,63,NULL,6,NULL,5183
1417474126,3c20c18407e36447800e01f6795c1d0e,AcceptabilityJudgment,527,0,filler,98,undefined
1417474126,3c20c18407e36447800e01f6795c1d0e,AcceptabilityJudgment,527,0,filler,98,NULL,7,NULL,5735
1417474126,3c20c18407e36447800e01f6795c1d0e,AcceptabilityJudgment,68,0,garnet-7,7,undefined
1417474126,3c20c18407e36447800e01f6795c1d0e,AcceptabilityJudgment,68,0,garnet-7,7,NULL,5,NULL,9271
1417474126,3c20c18407e36447800e01f6795c1d0e,AcceptabilityJudgment,370,0,garnet-5,45,undefined
1417474126,3c20c18407e36447800e01f6795c1d0e,AcceptabilityJudgment,370,0,garnet-5,45,NULL,5,NULL,14117
1417474126,3c20c18407e36447800e01f6795c1d0e,AcceptabilityJudgment,435,0,whint-2,62,undefined
1417474126,3c20c18407e36447800e01f6795c1d0e,AcceptabilityJudgment,435,0,whint-2,62,NULL,4,NULL,12064
1417474126,3c20c18407e36447800e01f6795c1d0e,AcceptabilityJudgment,523,0,filler,94,undefined
1417474126,3c20c18407e36447800e01f6795c1d0e,AcceptabilityJudgment,523,0,filler,94,NULL,2,NULL,22834
1417474126,3c20c18407e36447800e01f6795c1d0e,AcceptabilityJudgment,178,0,garnet-5,21,undefined
1417474126,3c20c18407e36447800e01f6795c1d0e,AcceptabilityJudgment,178,0,garnet-5,21,NULL,5,NULL,11670
1417474126,3c20c18407e36447800e01f6795c1d0e,AcceptabilityJudgment,142,0,garnet-1,17,undefined
1417474126,3c20c18407e36447800e01f6795c1d0e,AcceptabilityJudgment,142,0,garnet-1,17,NULL,6,NULL,16353
1417474126,3c20c18407e36447800e01f6795c1d0e,AcceptabilityJudgment,509,0,whint-4,80,undefined
1417474126,3c20c18407e36447800e01f6795c1d0e,AcceptabilityJudgment,509,0,whint-4,80,NULL,7,NULL,6391
1417474126,3c20c18407e36447800e01f6795c1d0e,AcceptabilityJudgment,402,0,mauner-1,51,undefined
1417474126,3c20c18407e36447800e01f6795c1d0e,AcceptabilityJudgment,402,0,mauner-1,51,NULL,5,NULL,5508
1417474126,3c20c18407e36447800e01f6795c1d0e,AcceptabilityJudgment,361,0,garnet-4,44,undefined
1417474126,3c20c18407e36447800e01f6795c1d0e,AcceptabilityJudgment,361,0,garnet-4,44,NULL,4,NULL,18189
1417474126,3c20c18407e36447800e01f6795c1d0e,AcceptabilityJudgment,512,0,filler,83,undefined
1417474126,3c20c18407e36447800e01f6795c1d0e,AcceptabilityJudgment,512,0,filler,83,NULL,6,NULL,8494
1417474126,3c20c18407e36447800e01f6795c1d0e,AcceptabilityJudgment,251,0,garnet-6,30,undefined
1417474126,3c20c18407e36447800e01f6795c1d0e,AcceptabilityJudgment,251,0,garnet-6,30,NULL,5,NULL,14526
1417474126,3c20c18407e36447800e01f6795c1d0e,AcceptabilityJudgment,472,0,whint-3,71,undefined
1417474126,3c20c18407e36447800e01f6795c1d0e,AcceptabilityJudgment,472,0,whint-3,71,NULL,5,NULL,11976
1417474126,3c20c18407e36447800e01f6795c1d0e,AcceptabilityJudgment,343,0,garnet-2,42,undefined
1417474126,3c20c18407e36447800e01f6795c1d0e,AcceptabilityJudgment,343,0,garnet-2,42,NULL,4,NULL,9738
1417474126,3c20c18407e36447800e01f6795c1d0e,AcceptabilityJudgment,514,0,filler,85,undefined
1417474126,3c20c18407e36447800e01f6795c1d0e,AcceptabilityJudgment,514,0,filler,85,NULL,6,NULL,8781
1417474126,3c20c18407e36447800e01f6795c1d0e,AcceptabilityJudgment,32,0,garnet-3,3,undefined
1417474126,3c20c18407e36447800e01f6795c1d0e,AcceptabilityJudgment,32,0,garnet-3,3,NULL,3,NULL,7957
1417474126,3c20c18407e36447800e01f6795c1d0e,AcceptabilityJudgment,430,0,whint-1,61,undefined
1417474126,3c20c18407e36447800e01f6795c1d0e,AcceptabilityJudgment,430,0,whint-1,61,NULL,4,NULL,13540
1417474126,3c20c18407e36447800e01f6795c1d0e,AcceptabilityJudgment,151,0,garnet-2,18,undefined
1417474126,3c20c18407e36447800e01f6795c1d0e,AcceptabilityJudgment,151,0,garnet-2,18,NULL,3,NULL,17796
1417474126,3c20c18407e36447800e01f6795c1d0e,AcceptabilityJudgment,513,0,filler,84,undefined
1417474126,3c20c18407e36447800e01f6795c1d0e,AcceptabilityJudgment,513,0,filler,84,NULL,6,NULL,5926
1417474126,3c20c18407e36447800e01f6795c1d0e,AcceptabilityJudgment,206,0,garnet-1,25,undefined
1417474126,3c20c18407e36447800e01f6795c1d0e,AcceptabilityJudgment,206,0,garnet-1,25,NULL,5,NULL,11582
1417474126,3c20c18407e36447800e01f6795c1d0e,AcceptabilityJudgment,488,0,whint-3,75,undefined
1417474126,3c20c18407e36447800e01f6795c1d0e,AcceptabilityJudgment,488,0,whint-3,75,NULL,6,NULL,7172
1417474126,3c20c18407e36447800e01f6795c1d0e,AcceptabilityJudgment,406,0,mauner-1,53,undefined
1417474126,3c20c18407e36447800e01f6795c1d0e,AcceptabilityJudgment,406,0,mauner-1,53,NULL,5,NULL,12252
#
# Results on Monday December 01 2014 23:00:46 UTC.
# USER AGENT: Mozilla/5.0 (Windows NT 6.1; WOW64; rv:33.0) Gecko/20100101 Firefox/33.0
# Design number was non-random = 0
#
# Columns below this comment are as follows:
# 1. Time results were received.
# 2. MD5 hash of participant's IP address.
# 3. Controller name.
# 4. Item number.
# 5. Element number.
# 6. Type.
# 7. Group.
# 8. Field name.
# 9. Field value.
1417474846,0c18de1b67c453444e84eb3921898c84,Form,1,0,consent,NULL,consent,yes
1417474846,0c18de1b67c453444e84eb3921898c84,Form,2,0,consent,NULL,age,54
1417474846,0c18de1b67c453444e84eb3921898c84,Form,2,0,consent,NULL,natlang,English
1417474846,0c18de1b67c453444e84eb3921898c84,Form,2,0,consent,NULL,state,Ohio
1417474846,0c18de1b67c453444e84eb3921898c84,Form,2,0,consent,NULL,parentlang,English
1417474846,0c18de1b67c453444e84eb3921898c84,Form,2,0,consent,NULL,domlang,English
1417474846,0c18de1b67c453444e84eb3921898c84,Form,2,0,consent,NULL,otherlang,No
1417474846,0c18de1b67c453444e84eb3921898c84,Form,2,0,consent,NULL,device,Desktop PC
1417474846,0c18de1b67c453444e84eb3921898c84,Form,2,0,consent,NULL,gender,female
# The lines below this comment are in groups of 2.
# The formats of the lines in each of these groups are as follows:
#
# Line 1:
#     Col. 1: Time results were received.
#     Col. 2: MD5 hash of participant's IP address.
#     Col. 3: Controller name.
#     Col. 4: Item number.
#     Col. 5: Element number.
#     Col. 6: Type.
#     Col. 7: Group.
#     Col. 8: Sentence (or sentence MD5).
# Line 2:
#     Col. 1: Time results were received.
#     Col. 2: MD5 hash of participant's IP address.
#     Col. 3: Controller name.
#     Col. 4: Item number.
#     Col. 5: Element number.
#     Col. 6: Type.
#     Col. 7: Group.
#     Col. 8: Question (NULL if none).
#     Col. 9: Answer.
#     Col. 10: Whether or not answer was correct (NULL if N/A).
#     Col. 11: Time taken to answer.
1417474846,0c18de1b67c453444e84eb3921898c84,AcceptabilityJudgment,9,0,practice,NULL,undefined
1417474846,0c18de1b67c453444e84eb3921898c84,AcceptabilityJudgment,9,0,practice,NULL,NULL,3,NULL,7690
1417474846,0c18de1b67c453444e84eb3921898c84,AcceptabilityJudgment,10,0,practice,NULL,undefined
1417474846,0c18de1b67c453444e84eb3921898c84,AcceptabilityJudgment,10,0,practice,NULL,NULL,7,NULL,5188
1417474846,0c18de1b67c453444e84eb3921898c84,AcceptabilityJudgment,11,0,practice,NULL,undefined
1417474846,0c18de1b67c453444e84eb3921898c84,AcceptabilityJudgment,11,0,practice,NULL,NULL,2,NULL,7055
1417474846,0c18de1b67c453444e84eb3921898c84,AcceptabilityJudgment,12,0,practice,NULL,undefined
1417474846,0c18de1b67c453444e84eb3921898c84,AcceptabilityJudgment,12,0,practice,NULL,NULL,6,NULL,6312
1417474846,0c18de1b67c453444e84eb3921898c84,AcceptabilityJudgment,215,0,garnet-2,26,undefined
1417474846,0c18de1b67c453444e84eb3921898c84,AcceptabilityJudgment,215,0,garnet-2,26,NULL,5,NULL,9539
1417474846,0c18de1b67c453444e84eb3921898c84,AcceptabilityJudgment,472,0,whint-3,71,undefined
1417474846,0c18de1b67c453444e84eb3921898c84,AcceptabilityJudgment,472,0,whint-3,71,NULL,6,NULL,5184
1417474846,0c18de1b67c453444e84eb3921898c84,AcceptabilityJudgment,151,0,garnet-2,18,undefined
1417474846,0c18de1b67c453444e84eb3921898c84,AcceptabilityJudgment,151,0,garnet-2,18,NULL,4,NULL,7686
1417474846,0c18de1b67c453444e84eb3921898c84,AcceptabilityJudgment,279,0,garnet-2,34,undefined
1417474846,0c18de1b67c453444e84eb3921898c84,AcceptabilityJudgment,279,0,garnet-2,34,NULL,3,NULL,6476
1417474846,0c18de1b67c453444e84eb3921898c84,AcceptabilityJudgment,515,0,filler,86,undefined
1417474846,0c18de1b67c453444e84eb3921898c84,AcceptabilityJudgment,515,0,filler,86,NULL,5,NULL,14300
1417474846,0c18de1b67c453444e84eb3921898c84,AcceptabilityJudgment,493,0,whint-4,76,undefined
1417474846,0c18de1b67c453444e84eb3921898c84,AcceptabilityJudgment,493,0,whint-4,76,NULL,6,NULL,4860
1417474846,0c18de1b67c453444e84eb3921898c84,AcceptabilityJudgment,87,0,garnet-2,10,undefined
1417474846,0c18de1b67c453444e84eb3921898c84,AcceptabilityJudgment,87,0,garnet-2,10,NULL,5,NULL,6522
1417474846,0c18de1b67c453444e84eb3921898c84,AcceptabilityJudgment,269,0,garnet-8,32,undefined
1417474846,0c18de1b67c453444e84eb3921898c84,AcceptabilityJudgment,269,0,garnet-8,32,NULL,2,NULL,6334
1417474846,0c18de1b67c453444e84eb3921898c84,AcceptabilityJudgment,529,0,filler,100,undefined
1417474846,0c18de1b67c453444e84eb3921898c84,AcceptabilityJudgment,529,0,filler,100,NULL,6,NULL,3943
1417474846,0c18de1b67c453444e84eb3921898c84,AcceptabilityJudgment,451,0,whint-2,66,undefined
1417474846,0c18de1b67c453444e84eb3921898c84,AcceptabilityJudgment,451,0,whint-2,66,NULL,5,NULL,5807
1417474846,0c18de1b67c453444e84eb3921898c84,AcceptabilityJudgment,270,0,garnet-1,33,undefined
1417474846,0c18de1b67c453444e84eb3921898c84,AcceptabilityJudgment,270,0,garnet-1,33,NULL,4,NULL,9584
1417474846,0c18de1b67c453444e84eb3921898c84,AcceptabilityJudgment,409,0,mauner-2,54,undefined
1417474846,0c18de1b67c453444e84eb3921898c84,AcceptabilityJudgment,409,0,mauner-2,54,NULL,5,NULL,3817
1417474846,0c18de1b67c453444e84eb3921898c84,AcceptabilityJudgment,242,0,garnet-5,29,undefined
1417474846,0c18de1b67c453444e84eb3921898c84,AcceptabilityJudgment,242,0,garnet-5,29,NULL,6,NULL,8798
1417474846,0c18de1b67c453444e84eb3921898c84,AcceptabilityJudgment,456,0,whint-3,67,undefined
1417474846,0c18de1b67c453444e84eb3921898c84,AcceptabilityJudgment,456,0,whint-3,67,NULL,6,NULL,6879
1417474846,0c18de1b67c453444e84eb3921898c84,AcceptabilityJudgment,288,0,garnet-3,35,undefined
1417474846,0c18de1b67c453444e84eb3921898c84,AcceptabilityJudgment,288,0,garnet-3,35,NULL,4,NULL,4834
1417474846,0c18de1b67c453444e84eb3921898c84,AcceptabilityJudgment,510,0,filler,81,undefined
1417474846,0c18de1b67c453444e84eb3921898c84,AcceptabilityJudgment,510,0,filler,81,NULL,2,NULL,10239
1417474846,0c18de1b67c453444e84eb3921898c84,AcceptabilityJudgment,50,0,garnet-5,5,undefined
1417474846,0c18de1b67c453444e84eb3921898c84,AcceptabilityJudgment,50,0,garnet-5,5,NULL,4,NULL,6729
1417474846,0c18de1b67c453444e84eb3921898c84,AcceptabilityJudgment,414,0,whint-1,57,undefined
1417474846,0c18de1b67c453444e84eb3921898c84,AcceptabilityJudgment,414,0,whint-1,57,NULL,4,NULL,5663
1417474846,0c18de1b67c453444e84eb3921898c84,AcceptabilityJudgment,187,0,garnet-6,22,undefined
1417474846,0c18de1b67c453444e84eb3921898c84,AcceptabilityJudgment,187,0,garnet-6,22,NULL,4,NULL,8340
1417474846,0c18de1b67c453444e84eb3921898c84,AcceptabilityJudgment,511,0,filler,82,undefined
1417474846,0c18de1b67c453444e84eb3921898c84,AcceptabilityJudgment,511,0,filler,82,NULL,4,NULL,6339
1417474846,0c18de1b67c453444e84eb3921898c84,AcceptabilityJudgment,379,0,garnet-6,46,undefined
1417474846,0c18de1b67c453444e84eb3921898c84,AcceptabilityJudgment,379,0,garnet-6,46,NULL,6,NULL,12399
1417474846,0c18de1b67c453444e84eb3921898c84,AcceptabilityJudgment,440,0,whint-3,63,undefined
1417474846,0c18de1b67c453444e84eb3921898c84,AcceptabilityJudgment,440,0,whint-3,63,NULL,6,NULL,5369
1417474846,0c18de1b67c453444e84eb3921898c84,AcceptabilityJudgment,405,0,mauner-2,52,undefined
1417474846,0c18de1b67c453444e84eb3921898c84,AcceptabilityJudgment,405,0,mauner-2,52,NULL,3,NULL,8846
1417474846,0c18de1b67c453444e84eb3921898c84,AcceptabilityJudgment,260,0,garnet-7,31,undefined
1417474846,0c18de1b67c453444e84eb3921898c84,AcceptabilityJudgment,260,0,garnet-7,31,NULL,2,NULL,7954
1417474846,0c18de1b67c453444e84eb3921898c84,AcceptabilityJudgment,516,0,filler,87,undefined
1417474846,0c18de1b67c453444e84eb3921898c84,AcceptabilityJudgment,516,0,filler,87,NULL,7,NULL,7001
1417474846,0c18de1b67c453444e84eb3921898c84,AcceptabilityJudgment,370,0,garnet-5,45,undefined
1417474846,0c18de1b67c453444e84eb3921898c84,AcceptabilityJudgment,370,0,garnet-5,45,NULL,5,NULL,6495
1417474846,0c18de1b67c453444e84eb3921898c84,AcceptabilityJudgment,494,0,whint-1,77,undefined
1417474846,0c18de1b67c453444e84eb3921898c84,AcceptabilityJudgment,494,0,whint-1,77,NULL,5,NULL,8421
1417474846,0c18de1b67c453444e84eb3921898c84,AcceptabilityJudgment,132,0,garnet-7,15,undefined
1417474846,0c18de1b67c453444e84eb3921898c84,AcceptabilityJudgment,132,0,garnet-7,15,NULL,3,NULL,5122
1417474846,0c18de1b67c453444e84eb3921898c84,AcceptabilityJudgment,334,0,garnet-1,41,undefined
1417474846,0c18de1b67c453444e84eb3921898c84,AcceptabilityJudgment,334,0,garnet-1,41,NULL,3,NULL,8678
1417474846,0c18de1b67c453444e84eb3921898c84,AcceptabilityJudgment,513,0,filler,84,undefined
1417474846,0c18de1b67c453444e84eb3921898c84,AcceptabilityJudgment,513,0,filler,84,NULL,7,NULL,8799
1417474846,0c18de1b67c453444e84eb3921898c84,AcceptabilityJudgment,435,0,whint-2,62,undefined
1417474846,0c18de1b67c453444e84eb3921898c84,AcceptabilityJudgment,435,0,whint-2,62,NULL,6,NULL,10475
1417474846,0c18de1b67c453444e84eb3921898c84,AcceptabilityJudgment,306,0,garnet-5,37,undefined
1417474846,0c18de1b67c453444e84eb3921898c84,AcceptabilityJudgment,306,0,garnet-5,37,NULL,5,NULL,6306
1417474846,0c18de1b67c453444e84eb3921898c84,AcceptabilityJudgment,114,0,garnet-5,13,undefined
1417474846,0c18de1b67c453444e84eb3921898c84,AcceptabilityJudgment,114,0,garnet-5,13,NULL,6,NULL,6406
1417474846,0c18de1b67c453444e84eb3921898c84,AcceptabilityJudgment,527,0,filler,98,undefined
1417474846,0c18de1b67c453444e84eb3921898c84,AcceptabilityJudgment,527,0,filler,98,NULL,7,NULL,7012
1417474846,0c18de1b67c453444e84eb3921898c84,AcceptabilityJudgment,499,0,whint-2,78,undefined
1417474846,0c18de1b67c453444e84eb3921898c84,AcceptabilityJudgment,499,0,whint-2,78,NULL,3,NULL,5354
1417474846,0c18de1b67c453444e84eb3921898c84,AcceptabilityJudgment,224,0,garnet-3,27,undefined
1417474846,0c18de1b67c453444e84eb3921898c84,AcceptabilityJudgment,224,0,garnet-3,27,NULL,4,NULL,7917
1417474846,0c18de1b67c453444e84eb3921898c84,AcceptabilityJudgment,401,0,mauner-2,50,undefined
1417474846,0c18de1b67c453444e84eb3921898c84,AcceptabilityJudgment,401,0,mauner-2,50,NULL,6,NULL,7547
1417474846,0c18de1b67c453444e84eb3921898c84,AcceptabilityJudgment,315,0,garnet-6,38,undefined
1417474846,0c18de1b67c453444e84eb3921898c84,AcceptabilityJudgment,315,0,garnet-6,38,NULL,4,NULL,22999
1417474846,0c18de1b67c453444e84eb3921898c84,AcceptabilityJudgment,446,0,whint-1,65,undefined
1417474846,0c18de1b67c453444e84eb3921898c84,AcceptabilityJudgment,446,0,whint-1,65,NULL,2,NULL,7724
1417474846,0c18de1b67c453444e84eb3921898c84,AcceptabilityJudgment,96,0,garnet-3,11,undefined
1417474846,0c18de1b67c453444e84eb3921898c84,AcceptabilityJudgment,96,0,garnet-3,11,NULL,3,NULL,5198
1417474846,0c18de1b67c453444e84eb3921898c84,AcceptabilityJudgment,519,0,filler,90,undefined
1417474846,0c18de1b67c453444e84eb3921898c84,AcceptabilityJudgment,519,0,filler,90,NULL,4,NULL,4950
1417474846,0c18de1b67c453444e84eb3921898c84,AcceptabilityJudgment,123,0,garnet-6,14,undefined
1417474846,0c18de1b67c453444e84eb3921898c84,AcceptabilityJudgment,123,0,garnet-6,14,NULL,5,NULL,12804
1417474846,0c18de1b67c453444e84eb3921898c84,AcceptabilityJudgment,478,0,whint-1,73,undefined
1417474846,0c18de1b67c453444e84eb3921898c84,AcceptabilityJudgment,478,0,whint-1,73,NULL,4,NULL,9416
1417474846,0c18de1b67c453444e84eb3921898c84,AcceptabilityJudgment,178,0,garnet-5,21,undefined
1417474846,0c18de1b67c453444e84eb3921898c84,AcceptabilityJudgment,178,0,garnet-5,21,NULL,5,NULL,6100
1417474846,0c18de1b67c453444e84eb3921898c84,AcceptabilityJudgment,517,0,filler,88,undefined
1417474846,0c18de1b67c453444e84eb3921898c84,AcceptabilityJudgment,517,0,filler,88,NULL,6,NULL,7050
1417474846,0c18de1b67c453444e84eb3921898c84,AcceptabilityJudgment,352,0,garnet-3,43,undefined
1417474846,0c18de1b67c453444e84eb3921898c84,AcceptabilityJudgment,352,0,garnet-3,43,NULL,2,NULL,8800
1417474846,0c18de1b67c453444e84eb3921898c84,AcceptabilityJudgment,445,0,whint-4,64,undefined
1417474846,0c18de1b67c453444e84eb3921898c84,AcceptabilityJudgment,445,0,whint-4,64,NULL,5,NULL,6125
1417474846,0c18de1b67c453444e84eb3921898c84,AcceptabilityJudgment,41,0,garnet-4,4,undefined
1417474846,0c18de1b67c453444e84eb3921898c84,AcceptabilityJudgment,41,0,garnet-4,4,NULL,1,NULL,9124
1417474846,0c18de1b67c453444e84eb3921898c84,AcceptabilityJudgment,523,0,filler,94,undefined
1417474846,0c18de1b67c453444e84eb3921898c84,AcceptabilityJudgment,523,0,filler,94,NULL,1,NULL,10968
1417474846,0c18de1b67c453444e84eb3921898c84,AcceptabilityJudgment,406,0,mauner-1,53,undefined
1417474846,0c18de1b67c453444e84eb3921898c84,AcceptabilityJudgment,406,0,mauner-1,53,NULL,5,NULL,6291
1417474846,0c18de1b67c453444e84eb3921898c84,AcceptabilityJudgment,169,0,garnet-4,20,undefined
1417474846,0c18de1b67c453444e84eb3921898c84,AcceptabilityJudgment,169,0,garnet-4,20,NULL,1,NULL,12607
1417474846,0c18de1b67c453444e84eb3921898c84,AcceptabilityJudgment,430,0,whint-1,61,undefined
1417474846,0c18de1b67c453444e84eb3921898c84,AcceptabilityJudgment,430,0,whint-1,61,NULL,4,NULL,7977
1417474846,0c18de1b67c453444e84eb3921898c84,AcceptabilityJudgment,68,0,garnet-7,7,undefined
1417474846,0c18de1b67c453444e84eb3921898c84,AcceptabilityJudgment,68,0,garnet-7,7,NULL,4,NULL,6114
1417474846,0c18de1b67c453444e84eb3921898c84,AcceptabilityJudgment,196,0,garnet-7,23,undefined
1417474846,0c18de1b67c453444e84eb3921898c84,AcceptabilityJudgment,196,0,garnet-7,23,NULL,1,NULL,7360
1417474846,0c18de1b67c453444e84eb3921898c84,AcceptabilityJudgment,522,0,filler,93,undefined
1417474846,0c18de1b67c453444e84eb3921898c84,AcceptabilityJudgment,522,0,filler,93,NULL,6,NULL,5805
1417474846,0c18de1b67c453444e84eb3921898c84,AcceptabilityJudgment,424,0,whint-3,59,undefined
1417474846,0c18de1b67c453444e84eb3921898c84,AcceptabilityJudgment,424,0,whint-3,59,NULL,6,NULL,7743
1417474846,0c18de1b67c453444e84eb3921898c84,AcceptabilityJudgment,141,0,garnet-8,16,undefined
1417474846,0c18de1b67c453444e84eb3921898c84,AcceptabilityJudgment,141,0,garnet-8,16,NULL,1,NULL,5562
1417474846,0c18de1b67c453444e84eb3921898c84,AcceptabilityJudgment,32,0,garnet-3,3,undefined
1417474846,0c18de1b67c453444e84eb3921898c84,AcceptabilityJudgment,32,0,garnet-3,3,NULL,2,NULL,8048
1417474846,0c18de1b67c453444e84eb3921898c84,AcceptabilityJudgment,520,0,filler,91,undefined
1417474846,0c18de1b67c453444e84eb3921898c84,AcceptabilityJudgment,520,0,filler,91,NULL,4,NULL,8857
1417474846,0c18de1b67c453444e84eb3921898c84,AcceptabilityJudgment,419,0,whint-2,58,undefined
1417474846,0c18de1b67c453444e84eb3921898c84,AcceptabilityJudgment,419,0,whint-2,58,NULL,7,NULL,5590
1417474846,0c18de1b67c453444e84eb3921898c84,AcceptabilityJudgment,398,0,mauner-1,49,undefined
1417474846,0c18de1b67c453444e84eb3921898c84,AcceptabilityJudgment,398,0,mauner-1,49,NULL,6,NULL,4903
1417474846,0c18de1b67c453444e84eb3921898c84,AcceptabilityJudgment,205,0,garnet-8,24,undefined
1417474846,0c18de1b67c453444e84eb3921898c84,AcceptabilityJudgment,205,0,garnet-8,24,NULL,5,NULL,9512
1417474846,0c18de1b67c453444e84eb3921898c84,AcceptabilityJudgment,361,0,garnet-4,44,undefined
1417474846,0c18de1b67c453444e84eb3921898c84,AcceptabilityJudgment,361,0,garnet-4,44,NULL,1,NULL,12110
1417474846,0c18de1b67c453444e84eb3921898c84,AcceptabilityJudgment,477,0,whint-4,72,undefined
1417474846,0c18de1b67c453444e84eb3921898c84,AcceptabilityJudgment,477,0,whint-4,72,NULL,5,NULL,5605
1417474846,0c18de1b67c453444e84eb3921898c84,AcceptabilityJudgment,14,0,garnet-1,1,undefined
1417474846,0c18de1b67c453444e84eb3921898c84,AcceptabilityJudgment,14,0,garnet-1,1,NULL,2,NULL,8735
1417474846,0c18de1b67c453444e84eb3921898c84,AcceptabilityJudgment,528,0,filler,99,undefined
1417474846,0c18de1b67c453444e84eb3921898c84,AcceptabilityJudgment,528,0,filler,99,NULL,7,NULL,6857
1417474846,0c18de1b67c453444e84eb3921898c84,AcceptabilityJudgment,78,0,garnet-1,9,undefined
1417474846,0c18de1b67c453444e84eb3921898c84,AcceptabilityJudgment,78,0,garnet-1,9,NULL,3,NULL,6363
1417474846,0c18de1b67c453444e84eb3921898c84,AcceptabilityJudgment,509,0,whint-4,80,undefined
1417474846,0c18de1b67c453444e84eb3921898c84,AcceptabilityJudgment,509,0,whint-4,80,NULL,5,NULL,6283
1417474846,0c18de1b67c453444e84eb3921898c84,AcceptabilityJudgment,343,0,garnet-2,42,undefined
1417474846,0c18de1b67c453444e84eb3921898c84,AcceptabilityJudgment,343,0,garnet-2,42,NULL,3,NULL,5304
1417474846,0c18de1b67c453444e84eb3921898c84,AcceptabilityJudgment,512,0,filler,83,undefined
1417474846,0c18de1b67c453444e84eb3921898c84,AcceptabilityJudgment,512,0,filler,83,NULL,5,NULL,8745
1417474846,0c18de1b67c453444e84eb3921898c84,AcceptabilityJudgment,59,0,garnet-6,6,undefined
1417474846,0c18de1b67c453444e84eb3921898c84,AcceptabilityJudgment,59,0,garnet-6,6,NULL,6,NULL,10293
1417474846,0c18de1b67c453444e84eb3921898c84,AcceptabilityJudgment,483,0,whint-2,74,undefined
1417474846,0c18de1b67c453444e84eb3921898c84,AcceptabilityJudgment,483,0,whint-2,74,NULL,4,NULL,8216
1417474846,0c18de1b67c453444e84eb3921898c84,AcceptabilityJudgment,413,0,mauner-2,56,undefined
1417474846,0c18de1b67c453444e84eb3921898c84,AcceptabilityJudgment,413,0,mauner-2,56,NULL,4,NULL,10500
1417474846,0c18de1b67c453444e84eb3921898c84,AcceptabilityJudgment,388,0,garnet-7,47,undefined
1417474846,0c18de1b67c453444e84eb3921898c84,AcceptabilityJudgment,388,0,garnet-7,47,NULL,3,NULL,5268
1417474846,0c18de1b67c453444e84eb3921898c84,AcceptabilityJudgment,105,0,garnet-4,12,undefined
1417474846,0c18de1b67c453444e84eb3921898c84,AcceptabilityJudgment,105,0,garnet-4,12,NULL,2,NULL,7366
1417474846,0c18de1b67c453444e84eb3921898c84,AcceptabilityJudgment,525,0,filler,96,undefined
1417474846,0c18de1b67c453444e84eb3921898c84,AcceptabilityJudgment,525,0,filler,96,NULL,6,NULL,6012
1417474846,0c18de1b67c453444e84eb3921898c84,AcceptabilityJudgment,467,0,whint-2,70,undefined
1417474846,0c18de1b67c453444e84eb3921898c84,AcceptabilityJudgment,467,0,whint-2,70,NULL,6,NULL,5603
1417474846,0c18de1b67c453444e84eb3921898c84,AcceptabilityJudgment,142,0,garnet-1,17,undefined
1417474846,0c18de1b67c453444e84eb3921898c84,AcceptabilityJudgment,142,0,garnet-1,17,NULL,7,NULL,10285
1417474846,0c18de1b67c453444e84eb3921898c84,AcceptabilityJudgment,397,0,garnet-8,48,undefined
1417474846,0c18de1b67c453444e84eb3921898c84,AcceptabilityJudgment,397,0,garnet-8,48,NULL,1,NULL,6263
1417474846,0c18de1b67c453444e84eb3921898c84,AcceptabilityJudgment,521,0,filler,92,undefined
1417474846,0c18de1b67c453444e84eb3921898c84,AcceptabilityJudgment,521,0,filler,92,NULL,4,NULL,6185
1417474846,0c18de1b67c453444e84eb3921898c84,AcceptabilityJudgment,488,0,whint-3,75,undefined
1417474846,0c18de1b67c453444e84eb3921898c84,AcceptabilityJudgment,488,0,whint-3,75,NULL,4,NULL,4971
1417474846,0c18de1b67c453444e84eb3921898c84,AcceptabilityJudgment,297,0,garnet-4,36,undefined
1417474846,0c18de1b67c453444e84eb3921898c84,AcceptabilityJudgment,297,0,garnet-4,36,NULL,1,NULL,7666
1417474846,0c18de1b67c453444e84eb3921898c84,AcceptabilityJudgment,206,0,garnet-1,25,undefined
1417474846,0c18de1b67c453444e84eb3921898c84,AcceptabilityJudgment,206,0,garnet-1,25,NULL,5,NULL,8649
1417474846,0c18de1b67c453444e84eb3921898c84,AcceptabilityJudgment,518,0,filler,89,undefined
1417474846,0c18de1b67c453444e84eb3921898c84,AcceptabilityJudgment,518,0,filler,89,NULL,7,NULL,8387
1417474846,0c18de1b67c453444e84eb3921898c84,AcceptabilityJudgment,429,0,whint-4,60,undefined
1417474846,0c18de1b67c453444e84eb3921898c84,AcceptabilityJudgment,429,0,whint-4,60,NULL,7,NULL,4260
1417474846,0c18de1b67c453444e84eb3921898c84,AcceptabilityJudgment,410,0,mauner-1,55,undefined
1417474846,0c18de1b67c453444e84eb3921898c84,AcceptabilityJudgment,410,0,mauner-1,55,NULL,7,NULL,6076
1417474846,0c18de1b67c453444e84eb3921898c84,AcceptabilityJudgment,77,0,garnet-8,8,undefined
1417474846,0c18de1b67c453444e84eb3921898c84,AcceptabilityJudgment,77,0,garnet-8,8,NULL,4,NULL,6832
1417474846,0c18de1b67c453444e84eb3921898c84,AcceptabilityJudgment,333,0,garnet-8,40,undefined
1417474846,0c18de1b67c453444e84eb3921898c84,AcceptabilityJudgment,333,0,garnet-8,40,NULL,1,NULL,5082
1417474846,0c18de1b67c453444e84eb3921898c84,AcceptabilityJudgment,504,0,whint-3,79,undefined
1417474846,0c18de1b67c453444e84eb3921898c84,AcceptabilityJudgment,504,0,whint-3,79,NULL,3,NULL,4575
1417474846,0c18de1b67c453444e84eb3921898c84,AcceptabilityJudgment,324,0,garnet-7,39,undefined
1417474846,0c18de1b67c453444e84eb3921898c84,AcceptabilityJudgment,324,0,garnet-7,39,NULL,3,NULL,8094
1417474846,0c18de1b67c453444e84eb3921898c84,AcceptabilityJudgment,526,0,filler,97,undefined
1417474846,0c18de1b67c453444e84eb3921898c84,AcceptabilityJudgment,526,0,filler,97,NULL,5,NULL,3321
1417474846,0c18de1b67c453444e84eb3921898c84,AcceptabilityJudgment,23,0,garnet-2,2,undefined
1417474846,0c18de1b67c453444e84eb3921898c84,AcceptabilityJudgment,23,0,garnet-2,2,NULL,2,NULL,7447
1417474846,0c18de1b67c453444e84eb3921898c84,AcceptabilityJudgment,461,0,whint-4,68,undefined
1417474846,0c18de1b67c453444e84eb3921898c84,AcceptabilityJudgment,461,0,whint-4,68,NULL,7,NULL,5721
1417474846,0c18de1b67c453444e84eb3921898c84,AcceptabilityJudgment,160,0,garnet-3,19,undefined
1417474846,0c18de1b67c453444e84eb3921898c84,AcceptabilityJudgment,160,0,garnet-3,19,NULL,3,NULL,3118
1417474846,0c18de1b67c453444e84eb3921898c84,AcceptabilityJudgment,524,0,filler,95,undefined
1417474846,0c18de1b67c453444e84eb3921898c84,AcceptabilityJudgment,524,0,filler,95,NULL,6,NULL,5528
1417474846,0c18de1b67c453444e84eb3921898c84,AcceptabilityJudgment,251,0,garnet-6,30,undefined
1417474846,0c18de1b67c453444e84eb3921898c84,AcceptabilityJudgment,251,0,garnet-6,30,NULL,5,NULL,14624
1417474846,0c18de1b67c453444e84eb3921898c84,AcceptabilityJudgment,462,0,whint-1,69,undefined
1417474846,0c18de1b67c453444e84eb3921898c84,AcceptabilityJudgment,462,0,whint-1,69,NULL,6,NULL,5058
1417474846,0c18de1b67c453444e84eb3921898c84,AcceptabilityJudgment,402,0,mauner-1,51,undefined
1417474846,0c18de1b67c453444e84eb3921898c84,AcceptabilityJudgment,402,0,mauner-1,51,NULL,5,NULL,4477
1417474846,0c18de1b67c453444e84eb3921898c84,AcceptabilityJudgment,233,0,garnet-4,28,undefined
1417474846,0c18de1b67c453444e84eb3921898c84,AcceptabilityJudgment,233,0,garnet-4,28,NULL,1,NULL,7113
1417474846,0c18de1b67c453444e84eb3921898c84,AcceptabilityJudgment,514,0,filler,85,undefined
1417474846,0c18de1b67c453444e84eb3921898c84,AcceptabilityJudgment,514,0,filler,85,NULL,7,NULL,7850
#
# Results on Monday December 01 2014 23:05:30 UTC.
# USER AGENT: Mozilla/5.0 (Windows NT 6.1; WOW64) AppleWebKit/537.36 (KHTML, like Gecko) Chrome/39.0.2171.71 Safari/537.36
# Design number was non-random = 0
#
# Columns below this comment are as follows:
# 1. Time results were received.
# 2. MD5 hash of participant's IP address.
# 3. Controller name.
# 4. Item number.
# 5. Element number.
# 6. Type.
# 7. Group.
# 8. Field name.
# 9. Field value.
1417475130,fd965d0e4e42bfe1c6a4f8fa4dca0aa1,Form,1,0,consent,NULL,consent,yes
1417475130,fd965d0e4e42bfe1c6a4f8fa4dca0aa1,Form,2,0,consent,NULL,age,23
1417475130,fd965d0e4e42bfe1c6a4f8fa4dca0aa1,Form,2,0,consent,NULL,natlang,English
1417475130,fd965d0e4e42bfe1c6a4f8fa4dca0aa1,Form,2,0,consent,NULL,state,MI
1417475130,fd965d0e4e42bfe1c6a4f8fa4dca0aa1,Form,2,0,consent,NULL,parentlang,English
1417475130,fd965d0e4e42bfe1c6a4f8fa4dca0aa1,Form,2,0,consent,NULL,domlang,English
1417475130,fd965d0e4e42bfe1c6a4f8fa4dca0aa1,Form,2,0,consent,NULL,otherlang,No
1417475130,fd965d0e4e42bfe1c6a4f8fa4dca0aa1,Form,2,0,consent,NULL,device,laptop
1417475130,fd965d0e4e42bfe1c6a4f8fa4dca0aa1,Form,2,0,consent,NULL,gender,female
# The lines below this comment are in groups of 2.
# The formats of the lines in each of these groups are as follows:
#
# Line 1:
#     Col. 1: Time results were received.
#     Col. 2: MD5 hash of participant's IP address.
#     Col. 3: Controller name.
#     Col. 4: Item number.
#     Col. 5: Element number.
#     Col. 6: Type.
#     Col. 7: Group.
#     Col. 8: Sentence (or sentence MD5).
# Line 2:
#     Col. 1: Time results were received.
#     Col. 2: MD5 hash of participant's IP address.
#     Col. 3: Controller name.
#     Col. 4: Item number.
#     Col. 5: Element number.
#     Col. 6: Type.
#     Col. 7: Group.
#     Col. 8: Question (NULL if none).
#     Col. 9: Answer.
#     Col. 10: Whether or not answer was correct (NULL if N/A).
#     Col. 11: Time taken to answer.
1417475130,fd965d0e4e42bfe1c6a4f8fa4dca0aa1,AcceptabilityJudgment,9,0,practice,NULL,undefined
1417475130,fd965d0e4e42bfe1c6a4f8fa4dca0aa1,AcceptabilityJudgment,9,0,practice,NULL,NULL,1,NULL,2553
1417475130,fd965d0e4e42bfe1c6a4f8fa4dca0aa1,AcceptabilityJudgment,10,0,practice,NULL,undefined
1417475130,fd965d0e4e42bfe1c6a4f8fa4dca0aa1,AcceptabilityJudgment,10,0,practice,NULL,NULL,2,NULL,3042
1417475130,fd965d0e4e42bfe1c6a4f8fa4dca0aa1,AcceptabilityJudgment,11,0,practice,NULL,undefined
1417475130,fd965d0e4e42bfe1c6a4f8fa4dca0aa1,AcceptabilityJudgment,11,0,practice,NULL,NULL,6,NULL,5744
1417475130,fd965d0e4e42bfe1c6a4f8fa4dca0aa1,AcceptabilityJudgment,12,0,practice,NULL,undefined
1417475130,fd965d0e4e42bfe1c6a4f8fa4dca0aa1,AcceptabilityJudgment,12,0,practice,NULL,NULL,5,NULL,1744
1417475130,fd965d0e4e42bfe1c6a4f8fa4dca0aa1,AcceptabilityJudgment,343,0,garnet-2,42,undefined
1417475130,fd965d0e4e42bfe1c6a4f8fa4dca0aa1,AcceptabilityJudgment,343,0,garnet-2,42,NULL,5,NULL,1959
1417475130,fd965d0e4e42bfe1c6a4f8fa4dca0aa1,AcceptabilityJudgment,324,0,garnet-7,39,undefined
1417475130,fd965d0e4e42bfe1c6a4f8fa4dca0aa1,AcceptabilityJudgment,324,0,garnet-7,39,NULL,6,NULL,2811
1417475130,fd965d0e4e42bfe1c6a4f8fa4dca0aa1,AcceptabilityJudgment,499,0,whint-2,78,undefined
1417475130,fd965d0e4e42bfe1c6a4f8fa4dca0aa1,AcceptabilityJudgment,499,0,whint-2,78,NULL,6,NULL,3980
1417475130,fd965d0e4e42bfe1c6a4f8fa4dca0aa1,AcceptabilityJudgment,141,0,garnet-8,16,undefined
1417475130,fd965d0e4e42bfe1c6a4f8fa4dca0aa1,AcceptabilityJudgment,141,0,garnet-8,16,NULL,5,NULL,1299
1417475130,fd965d0e4e42bfe1c6a4f8fa4dca0aa1,AcceptabilityJudgment,516,0,filler,87,undefined
1417475130,fd965d0e4e42bfe1c6a4f8fa4dca0aa1,AcceptabilityJudgment,516,0,filler,87,NULL,4,NULL,2381
1417475130,fd965d0e4e42bfe1c6a4f8fa4dca0aa1,AcceptabilityJudgment,205,0,garnet-8,24,undefined
1417475130,fd965d0e4e42bfe1c6a4f8fa4dca0aa1,AcceptabilityJudgment,205,0,garnet-8,24,NULL,5,NULL,2536
1417475130,fd965d0e4e42bfe1c6a4f8fa4dca0aa1,AcceptabilityJudgment,462,0,whint-1,69,undefined
1417475130,fd965d0e4e42bfe1c6a4f8fa4dca0aa1,AcceptabilityJudgment,462,0,whint-1,69,NULL,3,NULL,1928
1417475130,fd965d0e4e42bfe1c6a4f8fa4dca0aa1,AcceptabilityJudgment,251,0,garnet-6,30,undefined
1417475130,fd965d0e4e42bfe1c6a4f8fa4dca0aa1,AcceptabilityJudgment,251,0,garnet-6,30,NULL,6,NULL,10366
1417475130,fd965d0e4e42bfe1c6a4f8fa4dca0aa1,AcceptabilityJudgment,524,0,filler,95,undefined
1417475130,fd965d0e4e42bfe1c6a4f8fa4dca0aa1,AcceptabilityJudgment,524,0,filler,95,NULL,5,NULL,1389
1417475130,fd965d0e4e42bfe1c6a4f8fa4dca0aa1,AcceptabilityJudgment,315,0,garnet-6,38,undefined
1417475130,fd965d0e4e42bfe1c6a4f8fa4dca0aa1,AcceptabilityJudgment,315,0,garnet-6,38,NULL,3,NULL,1508
1417475130,fd965d0e4e42bfe1c6a4f8fa4dca0aa1,AcceptabilityJudgment,446,0,whint-1,65,undefined
1417475130,fd965d0e4e42bfe1c6a4f8fa4dca0aa1,AcceptabilityJudgment,446,0,whint-1,65,NULL,6,NULL,1809
1417475130,fd965d0e4e42bfe1c6a4f8fa4dca0aa1,AcceptabilityJudgment,333,0,garnet-8,40,undefined
1417475130,fd965d0e4e42bfe1c6a4f8fa4dca0aa1,AcceptabilityJudgment,333,0,garnet-8,40,NULL,3,NULL,1288
1417475130,fd965d0e4e42bfe1c6a4f8fa4dca0aa1,AcceptabilityJudgment,398,0,mauner-1,49,undefined
1417475130,fd965d0e4e42bfe1c6a4f8fa4dca0aa1,AcceptabilityJudgment,398,0,mauner-1,49,NULL,5,NULL,1397
1417475130,fd965d0e4e42bfe1c6a4f8fa4dca0aa1,AcceptabilityJudgment,77,0,garnet-8,8,undefined
1417475130,fd965d0e4e42bfe1c6a4f8fa4dca0aa1,AcceptabilityJudgment,77,0,garnet-8,8,NULL,4,NULL,1404
1417475130,fd965d0e4e42bfe1c6a4f8fa4dca0aa1,AcceptabilityJudgment,525,0,filler,96,undefined
1417475130,fd965d0e4e42bfe1c6a4f8fa4dca0aa1,AcceptabilityJudgment,525,0,filler,96,NULL,6,NULL,9071
1417475130,fd965d0e4e42bfe1c6a4f8fa4dca0aa1,AcceptabilityJudgment,435,0,whint-2,62,undefined
1417475130,fd965d0e4e42bfe1c6a4f8fa4dca0aa1,AcceptabilityJudgment,435,0,whint-2,62,NULL,4,NULL,1399
1417475130,fd965d0e4e42bfe1c6a4f8fa4dca0aa1,AcceptabilityJudgment,370,0,garnet-5,45,undefined
1417475130,fd965d0e4e42bfe1c6a4f8fa4dca0aa1,AcceptabilityJudgment,370,0,garnet-5,45,NULL,5,NULL,1598
1417475130,fd965d0e4e42bfe1c6a4f8fa4dca0aa1,AcceptabilityJudgment,68,0,garnet-7,7,undefined
1417475130,fd965d0e4e42bfe1c6a4f8fa4dca0aa1,AcceptabilityJudgment,68,0,garnet-7,7,NULL,6,NULL,1510
1417475130,fd965d0e4e42bfe1c6a4f8fa4dca0aa1,AcceptabilityJudgment,512,0,filler,83,undefined
1417475130,fd965d0e4e42bfe1c6a4f8fa4dca0aa1,AcceptabilityJudgment,512,0,filler,83,NULL,4,NULL,1306
1417475130,fd965d0e4e42bfe1c6a4f8fa4dca0aa1,AcceptabilityJudgment,440,0,whint-3,63,undefined
1417475130,fd965d0e4e42bfe1c6a4f8fa4dca0aa1,AcceptabilityJudgment,440,0,whint-3,63,NULL,5,NULL,1978
1417475130,fd965d0e4e42bfe1c6a4f8fa4dca0aa1,AcceptabilityJudgment,215,0,garnet-2,26,undefined
1417475130,fd965d0e4e42bfe1c6a4f8fa4dca0aa1,AcceptabilityJudgment,215,0,garnet-2,26,NULL,5,NULL,1712
1417475130,fd965d0e4e42bfe1c6a4f8fa4dca0aa1,AcceptabilityJudgment,123,0,garnet-6,14,undefined
1417475130,fd965d0e4e42bfe1c6a4f8fa4dca0aa1,AcceptabilityJudgment,123,0,garnet-6,14,NULL,4,NULL,2005
1417475130,fd965d0e4e42bfe1c6a4f8fa4dca0aa1,AcceptabilityJudgment,409,0,mauner-2,54,undefined
1417475130,fd965d0e4e42bfe1c6a4f8fa4dca0aa1,AcceptabilityJudgment,409,0,mauner-2,54,NULL,5,NULL,1497
1417475130,fd965d0e4e42bfe1c6a4f8fa4dca0aa1,AcceptabilityJudgment,518,0,filler,89,undefined
1417475130,fd965d0e4e42bfe1c6a4f8fa4dca0aa1,AcceptabilityJudgment,518,0,filler,89,NULL,4,NULL,855
1417475130,fd965d0e4e42bfe1c6a4f8fa4dca0aa1,AcceptabilityJudgment,493,0,whint-4,76,undefined
1417475130,fd965d0e4e42bfe1c6a4f8fa4dca0aa1,AcceptabilityJudgment,493,0,whint-4,76,NULL,5,NULL,8158
1417475130,fd965d0e4e42bfe1c6a4f8fa4dca0aa1,AcceptabilityJudgment,32,0,garnet-3,3,undefined
1417475130,fd965d0e4e42bfe1c6a4f8fa4dca0aa1,AcceptabilityJudgment,32,0,garnet-3,3,NULL,4,NULL,2149
1417475130,fd965d0e4e42bfe1c6a4f8fa4dca0aa1,AcceptabilityJudgment,78,0,garnet-1,9,undefined
1417475130,fd965d0e4e42bfe1c6a4f8fa4dca0aa1,AcceptabilityJudgment,78,0,garnet-1,9,NULL,5,NULL,1422
1417475130,fd965d0e4e42bfe1c6a4f8fa4dca0aa1,AcceptabilityJudgment,430,0,whint-1,61,undefined
1417475130,fd965d0e4e42bfe1c6a4f8fa4dca0aa1,AcceptabilityJudgment,430,0,whint-1,61,NULL,5,NULL,6021
1417475130,fd965d0e4e42bfe1c6a4f8fa4dca0aa1,AcceptabilityJudgment,270,0,garnet-1,33,undefined
1417475130,fd965d0e4e42bfe1c6a4f8fa4dca0aa1,AcceptabilityJudgment,270,0,garnet-1,33,NULL,5,NULL,1050
1417475130,fd965d0e4e42bfe1c6a4f8fa4dca0aa1,AcceptabilityJudgment,527,0,filler,98,undefined
1417475130,fd965d0e4e42bfe1c6a4f8fa4dca0aa1,AcceptabilityJudgment,527,0,filler,98,NULL,6,NULL,1167
1417475130,fd965d0e4e42bfe1c6a4f8fa4dca0aa1,AcceptabilityJudgment,178,0,garnet-5,21,undefined
1417475130,fd965d0e4e42bfe1c6a4f8fa4dca0aa1,AcceptabilityJudgment,178,0,garnet-5,21,NULL,4,NULL,1640
1417475130,fd965d0e4e42bfe1c6a4f8fa4dca0aa1,AcceptabilityJudgment,504,0,whint-3,79,undefined
1417475130,fd965d0e4e42bfe1c6a4f8fa4dca0aa1,AcceptabilityJudgment,504,0,whint-3,79,NULL,4,NULL,3566
1417475130,fd965d0e4e42bfe1c6a4f8fa4dca0aa1,AcceptabilityJudgment,352,0,garnet-3,43,undefined
1417475130,fd965d0e4e42bfe1c6a4f8fa4dca0aa1,AcceptabilityJudgment,352,0,garnet-3,43,NULL,6,NULL,1813
1417475130,fd965d0e4e42bfe1c6a4f8fa4dca0aa1,AcceptabilityJudgment,515,0,filler,86,undefined
1417475130,fd965d0e4e42bfe1c6a4f8fa4dca0aa1,AcceptabilityJudgment,515,0,filler,86,NULL,3,NULL,1366
1417475130,fd965d0e4e42bfe1c6a4f8fa4dca0aa1,AcceptabilityJudgment,206,0,garnet-1,25,undefined
1417475130,fd965d0e4e42bfe1c6a4f8fa4dca0aa1,AcceptabilityJudgment,206,0,garnet-1,25,NULL,5,NULL,7716
1417475130,fd965d0e4e42bfe1c6a4f8fa4dca0aa1,AcceptabilityJudgment,494,0,whint-1,77,undefined
1417475130,fd965d0e4e42bfe1c6a4f8fa4dca0aa1,AcceptabilityJudgment,494,0,whint-1,77,NULL,6,NULL,1424
1417475130,fd965d0e4e42bfe1c6a4f8fa4dca0aa1,AcceptabilityJudgment,50,0,garnet-5,5,undefined
1417475130,fd965d0e4e42bfe1c6a4f8fa4dca0aa1,AcceptabilityJudgment,50,0,garnet-5,5,NULL,4,NULL,1278
1417475130,fd965d0e4e42bfe1c6a4f8fa4dca0aa1,AcceptabilityJudgment,413,0,mauner-2,56,undefined
1417475130,fd965d0e4e42bfe1c6a4f8fa4dca0aa1,AcceptabilityJudgment,413,0,mauner-2,56,NULL,5,NULL,1127
1417475130,fd965d0e4e42bfe1c6a4f8fa4dca0aa1,AcceptabilityJudgment,279,0,garnet-2,34,undefined
1417475130,fd965d0e4e42bfe1c6a4f8fa4dca0aa1,AcceptabilityJudgment,279,0,garnet-2,34,NULL,6,NULL,1755
1417475130,fd965d0e4e42bfe1c6a4f8fa4dca0aa1,AcceptabilityJudgment,519,0,filler,90,undefined
1417475130,fd965d0e4e42bfe1c6a4f8fa4dca0aa1,AcceptabilityJudgment,519,0,filler,90,NULL,6,NULL,9179
1417475130,fd965d0e4e42bfe1c6a4f8fa4dca0aa1,AcceptabilityJudgment,414,0,whint-1,57,undefined
1417475130,fd965d0e4e42bfe1c6a4f8fa4dca0aa1,AcceptabilityJudgment,414,0,whint-1,57,NULL,5,NULL,1352
1417475130,fd965d0e4e42bfe1c6a4f8fa4dca0aa1,AcceptabilityJudgment,105,0,garnet-4,12,undefined
1417475130,fd965d0e4e42bfe1c6a4f8fa4dca0aa1,AcceptabilityJudgment,105,0,garnet-4,12,NULL,6,NULL,1258
1417475130,fd965d0e4e42bfe1c6a4f8fa4dca0aa1,AcceptabilityJudgment,41,0,garnet-4,4,undefined
1417475130,fd965d0e4e42bfe1c6a4f8fa4dca0aa1,AcceptabilityJudgment,41,0,garnet-4,4,NULL,4,NULL,961
1417475130,fd965d0e4e42bfe1c6a4f8fa4dca0aa1,AcceptabilityJudgment,514,0,filler,85,undefined
1417475130,fd965d0e4e42bfe1c6a4f8fa4dca0aa1,AcceptabilityJudgment,514,0,filler,85,NULL,5,NULL,1201
1417475130,fd965d0e4e42bfe1c6a4f8fa4dca0aa1,AcceptabilityJudgment,461,0,whint-4,68,undefined
1417475130,fd965d0e4e42bfe1c6a4f8fa4dca0aa1,AcceptabilityJudgment,461,0,whint-4,68,NULL,6,NULL,1515
1417475130,fd965d0e4e42bfe1c6a4f8fa4dca0aa1,AcceptabilityJudgment,151,0,garnet-2,18,undefined
1417475130,fd965d0e4e42bfe1c6a4f8fa4dca0aa1,AcceptabilityJudgment,151,0,garnet-2,18,NULL,5,NULL,1057
1417475130,fd965d0e4e42bfe1c6a4f8fa4dca0aa1,AcceptabilityJudgment,160,0,garnet-3,19,undefined
1417475130,fd965d0e4e42bfe1c6a4f8fa4dca0aa1,AcceptabilityJudgment,160,0,garnet-3,19,NULL,6,NULL,1940
1417475130,fd965d0e4e42bfe1c6a4f8fa4dca0aa1,AcceptabilityJudgment,513,0,filler,84,undefined
1417475130,fd965d0e4e42bfe1c6a4f8fa4dca0aa1,AcceptabilityJudgment,513,0,filler,84,NULL,6,NULL,1771
1417475130,fd965d0e4e42bfe1c6a4f8fa4dca0aa1,AcceptabilityJudgment,488,0,whint-3,75,undefined
1417475130,fd965d0e4e42bfe1c6a4f8fa4dca0aa1,AcceptabilityJudgment,488,0,whint-3,75,NULL,6,NULL,9200
1417475130,fd965d0e4e42bfe1c6a4f8fa4dca0aa1,AcceptabilityJudgment,114,0,garnet-5,13,undefined
1417475130,fd965d0e4e42bfe1c6a4f8fa4dca0aa1,AcceptabilityJudgment,114,0,garnet-5,13,NULL,6,NULL,945
1417475130,fd965d0e4e42bfe1c6a4f8fa4dca0aa1,AcceptabilityJudgment,402,0,mauner-1,51,undefined
1417475130,fd965d0e4e42bfe1c6a4f8fa4dca0aa1,AcceptabilityJudgment,402,0,mauner-1,51,NULL,5,NULL,1629
1417475130,fd965d0e4e42bfe1c6a4f8fa4dca0aa1,AcceptabilityJudgment,379,0,garnet-6,46,undefined
1417475130,fd965d0e4e42bfe1c6a4f8fa4dca0aa1,AcceptabilityJudgment,379,0,garnet-6,46,NULL,5,NULL,946
1417475130,fd965d0e4e42bfe1c6a4f8fa4dca0aa1,AcceptabilityJudgment,456,0,whint-3,67,undefined
1417475130,fd965d0e4e42bfe1c6a4f8fa4dca0aa1,AcceptabilityJudgment,456,0,whint-3,67,NULL,6,NULL,1114
1417475130,fd965d0e4e42bfe1c6a4f8fa4dca0aa1,AcceptabilityJudgment,269,0,garnet-8,32,undefined
1417475130,fd965d0e4e42bfe1c6a4f8fa4dca0aa1,AcceptabilityJudgment,269,0,garnet-8,32,NULL,4,NULL,1453
1417475130,fd965d0e4e42bfe1c6a4f8fa4dca0aa1,AcceptabilityJudgment,526,0,filler,97,undefined
1417475130,fd965d0e4e42bfe1c6a4f8fa4dca0aa1,AcceptabilityJudgment,526,0,filler,97,NULL,6,NULL,7503
1417475130,fd965d0e4e42bfe1c6a4f8fa4dca0aa1,AcceptabilityJudgment,96,0,garnet-3,11,undefined
1417475130,fd965d0e4e42bfe1c6a4f8fa4dca0aa1,AcceptabilityJudgment,96,0,garnet-3,11,NULL,6,NULL,858
1417475130,fd965d0e4e42bfe1c6a4f8fa4dca0aa1,AcceptabilityJudgment,509,0,whint-4,80,undefined
1417475130,fd965d0e4e42bfe1c6a4f8fa4dca0aa1,AcceptabilityJudgment,509,0,whint-4,80,NULL,5,NULL,1261
1417475130,fd965d0e4e42bfe1c6a4f8fa4dca0aa1,AcceptabilityJudgment,14,0,garnet-1,1,undefined
1417475130,fd965d0e4e42bfe1c6a4f8fa4dca0aa1,AcceptabilityJudgment,14,0,garnet-1,1,NULL,5,NULL,1001
1417475130,fd965d0e4e42bfe1c6a4f8fa4dca0aa1,AcceptabilityJudgment,517,0,filler,88,undefined
1417475130,fd965d0e4e42bfe1c6a4f8fa4dca0aa1,AcceptabilityJudgment,517,0,filler,88,NULL,6,NULL,1268
1417475130,fd965d0e4e42bfe1c6a4f8fa4dca0aa1,AcceptabilityJudgment,196,0,garnet-7,23,undefined
1417475130,fd965d0e4e42bfe1c6a4f8fa4dca0aa1,AcceptabilityJudgment,196,0,garnet-7,23,NULL,5,NULL,1880
1417475130,fd965d0e4e42bfe1c6a4f8fa4dca0aa1,AcceptabilityJudgment,406,0,mauner-1,53,undefined
1417475130,fd965d0e4e42bfe1c6a4f8fa4dca0aa1,AcceptabilityJudgment,406,0,mauner-1,53,NULL,6,NULL,1900
1417475130,fd965d0e4e42bfe1c6a4f8fa4dca0aa1,AcceptabilityJudgment,477,0,whint-4,72,undefined
1417475130,fd965d0e4e42bfe1c6a4f8fa4dca0aa1,AcceptabilityJudgment,477,0,whint-4,72,NULL,5,NULL,1266
1417475130,fd965d0e4e42bfe1c6a4f8fa4dca0aa1,AcceptabilityJudgment,306,0,garnet-5,37,undefined
1417475130,fd965d0e4e42bfe1c6a4f8fa4dca0aa1,AcceptabilityJudgment,306,0,garnet-5,37,NULL,6,NULL,1233
1417475130,fd965d0e4e42bfe1c6a4f8fa4dca0aa1,AcceptabilityJudgment,288,0,garnet-3,35,undefined
1417475130,fd965d0e4e42bfe1c6a4f8fa4dca0aa1,AcceptabilityJudgment,288,0,garnet-3,35,NULL,6,NULL,995
1417475130,fd965d0e4e42bfe1c6a4f8fa4dca0aa1,AcceptabilityJudgment,523,0,filler,94,undefined
1417475130,fd965d0e4e42bfe1c6a4f8fa4dca0aa1,AcceptabilityJudgment,523,0,filler,94,NULL,4,NULL,2278
1417475130,fd965d0e4e42bfe1c6a4f8fa4dca0aa1,AcceptabilityJudgment,478,0,whint-1,73,undefined
1417475130,fd965d0e4e42bfe1c6a4f8fa4dca0aa1,AcceptabilityJudgment,478,0,whint-1,73,NULL,6,NULL,1376
1417475130,fd965d0e4e42bfe1c6a4f8fa4dca0aa1,AcceptabilityJudgment,297,0,garnet-4,36,undefined
1417475130,fd965d0e4e42bfe1c6a4f8fa4dca0aa1,AcceptabilityJudgment,297,0,garnet-4,36,NULL,5,NULL,1863
1417475130,fd965d0e4e42bfe1c6a4f8fa4dca0aa1,AcceptabilityJudgment,169,0,garnet-4,20,undefined
1417475130,fd965d0e4e42bfe1c6a4f8fa4dca0aa1,AcceptabilityJudgment,169,0,garnet-4,20,NULL,6,NULL,10029
1417475130,fd965d0e4e42bfe1c6a4f8fa4dca0aa1,AcceptabilityJudgment,510,0,filler,81,undefined
1417475130,fd965d0e4e42bfe1c6a4f8fa4dca0aa1,AcceptabilityJudgment,510,0,filler,81,NULL,5,NULL,1100
1417475130,fd965d0e4e42bfe1c6a4f8fa4dca0aa1,AcceptabilityJudgment,483,0,whint-2,74,undefined
1417475130,fd965d0e4e42bfe1c6a4f8fa4dca0aa1,AcceptabilityJudgment,483,0,whint-2,74,NULL,5,NULL,2075
1417475130,fd965d0e4e42bfe1c6a4f8fa4dca0aa1,AcceptabilityJudgment,397,0,garnet-8,48,undefined
1417475130,fd965d0e4e42bfe1c6a4f8fa4dca0aa1,AcceptabilityJudgment,397,0,garnet-8,48,NULL,5,NULL,929
1417475130,fd965d0e4e42bfe1c6a4f8fa4dca0aa1,AcceptabilityJudgment,388,0,garnet-7,47,undefined
1417475130,fd965d0e4e42bfe1c6a4f8fa4dca0aa1,AcceptabilityJudgment,388,0,garnet-7,47,NULL,5,NULL,1074
1417475130,fd965d0e4e42bfe1c6a4f8fa4dca0aa1,AcceptabilityJudgment,410,0,mauner-1,55,undefined
1417475130,fd965d0e4e42bfe1c6a4f8fa4dca0aa1,AcceptabilityJudgment,410,0,mauner-1,55,NULL,6,NULL,1187
1417475130,fd965d0e4e42bfe1c6a4f8fa4dca0aa1,AcceptabilityJudgment,467,0,whint-2,70,undefined
1417475130,fd965d0e4e42bfe1c6a4f8fa4dca0aa1,AcceptabilityJudgment,467,0,whint-2,70,NULL,5,NULL,1069
1417475130,fd965d0e4e42bfe1c6a4f8fa4dca0aa1,AcceptabilityJudgment,224,0,garnet-3,27,undefined
1417475130,fd965d0e4e42bfe1c6a4f8fa4dca0aa1,AcceptabilityJudgment,224,0,garnet-3,27,NULL,4,NULL,1456
1417475130,fd965d0e4e42bfe1c6a4f8fa4dca0aa1,AcceptabilityJudgment,522,0,filler,93,undefined
1417475130,fd965d0e4e42bfe1c6a4f8fa4dca0aa1,AcceptabilityJudgment,522,0,filler,93,NULL,6,NULL,7253
1417475130,fd965d0e4e42bfe1c6a4f8fa4dca0aa1,AcceptabilityJudgment,59,0,garnet-6,6,undefined
1417475130,fd965d0e4e42bfe1c6a4f8fa4dca0aa1,AcceptabilityJudgment,59,0,garnet-6,6,NULL,5,NULL,1387
1417475130,fd965d0e4e42bfe1c6a4f8fa4dca0aa1,AcceptabilityJudgment,429,0,whint-4,60,undefined
1417475130,fd965d0e4e42bfe1c6a4f8fa4dca0aa1,AcceptabilityJudgment,429,0,whint-4,60,NULL,5,NULL,1002
1417475130,fd965d0e4e42bfe1c6a4f8fa4dca0aa1,AcceptabilityJudgment,361,0,garnet-4,44,undefined
1417475130,fd965d0e4e42bfe1c6a4f8fa4dca0aa1,AcceptabilityJudgment,361,0,garnet-4,44,NULL,5,NULL,1936
1417475130,fd965d0e4e42bfe1c6a4f8fa4dca0aa1,AcceptabilityJudgment,511,0,filler,82,undefined
1417475130,fd965d0e4e42bfe1c6a4f8fa4dca0aa1,AcceptabilityJudgment,511,0,filler,82,NULL,6,NULL,2459
1417475130,fd965d0e4e42bfe1c6a4f8fa4dca0aa1,AcceptabilityJudgment,132,0,garnet-7,15,undefined
1417475130,fd965d0e4e42bfe1c6a4f8fa4dca0aa1,AcceptabilityJudgment,132,0,garnet-7,15,NULL,5,NULL,1295
1417475130,fd965d0e4e42bfe1c6a4f8fa4dca0aa1,AcceptabilityJudgment,472,0,whint-3,71,undefined
1417475130,fd965d0e4e42bfe1c6a4f8fa4dca0aa1,AcceptabilityJudgment,472,0,whint-3,71,NULL,6,NULL,1543
1417475130,fd965d0e4e42bfe1c6a4f8fa4dca0aa1,AcceptabilityJudgment,233,0,garnet-4,28,undefined
1417475130,fd965d0e4e42bfe1c6a4f8fa4dca0aa1,AcceptabilityJudgment,233,0,garnet-4,28,NULL,4,NULL,1385
1417475130,fd965d0e4e42bfe1c6a4f8fa4dca0aa1,AcceptabilityJudgment,521,0,filler,92,undefined
1417475130,fd965d0e4e42bfe1c6a4f8fa4dca0aa1,AcceptabilityJudgment,521,0,filler,92,NULL,6,NULL,1772
1417475130,fd965d0e4e42bfe1c6a4f8fa4dca0aa1,AcceptabilityJudgment,142,0,garnet-1,17,undefined
1417475130,fd965d0e4e42bfe1c6a4f8fa4dca0aa1,AcceptabilityJudgment,142,0,garnet-1,17,NULL,6,NULL,1199
1417475130,fd965d0e4e42bfe1c6a4f8fa4dca0aa1,AcceptabilityJudgment,401,0,mauner-2,50,undefined
1417475130,fd965d0e4e42bfe1c6a4f8fa4dca0aa1,AcceptabilityJudgment,401,0,mauner-2,50,NULL,6,NULL,11416
1417475130,fd965d0e4e42bfe1c6a4f8fa4dca0aa1,AcceptabilityJudgment,451,0,whint-2,66,undefined
1417475130,fd965d0e4e42bfe1c6a4f8fa4dca0aa1,AcceptabilityJudgment,451,0,whint-2,66,NULL,5,NULL,1255
1417475130,fd965d0e4e42bfe1c6a4f8fa4dca0aa1,AcceptabilityJudgment,242,0,garnet-5,29,undefined
1417475130,fd965d0e4e42bfe1c6a4f8fa4dca0aa1,AcceptabilityJudgment,242,0,garnet-5,29,NULL,6,NULL,1261
1417475130,fd965d0e4e42bfe1c6a4f8fa4dca0aa1,AcceptabilityJudgment,187,0,garnet-6,22,undefined
1417475130,fd965d0e4e42bfe1c6a4f8fa4dca0aa1,AcceptabilityJudgment,187,0,garnet-6,22,NULL,4,NULL,1377
1417475130,fd965d0e4e42bfe1c6a4f8fa4dca0aa1,AcceptabilityJudgment,529,0,filler,100,undefined
1417475130,fd965d0e4e42bfe1c6a4f8fa4dca0aa1,AcceptabilityJudgment,529,0,filler,100,NULL,4,NULL,1139
1417475130,fd965d0e4e42bfe1c6a4f8fa4dca0aa1,AcceptabilityJudgment,445,0,whint-4,64,undefined
1417475130,fd965d0e4e42bfe1c6a4f8fa4dca0aa1,AcceptabilityJudgment,445,0,whint-4,64,NULL,3,NULL,1569
1417475130,fd965d0e4e42bfe1c6a4f8fa4dca0aa1,AcceptabilityJudgment,260,0,garnet-7,31,undefined
1417475130,fd965d0e4e42bfe1c6a4f8fa4dca0aa1,AcceptabilityJudgment,260,0,garnet-7,31,NULL,6,NULL,1516
1417475130,fd965d0e4e42bfe1c6a4f8fa4dca0aa1,AcceptabilityJudgment,87,0,garnet-2,10,undefined
1417475130,fd965d0e4e42bfe1c6a4f8fa4dca0aa1,AcceptabilityJudgment,87,0,garnet-2,10,NULL,5,NULL,1271
1417475130,fd965d0e4e42bfe1c6a4f8fa4dca0aa1,AcceptabilityJudgment,520,0,filler,91,undefined
1417475130,fd965d0e4e42bfe1c6a4f8fa4dca0aa1,AcceptabilityJudgment,520,0,filler,91,NULL,7,NULL,2070
1417475130,fd965d0e4e42bfe1c6a4f8fa4dca0aa1,AcceptabilityJudgment,419,0,whint-2,58,undefined
1417475130,fd965d0e4e42bfe1c6a4f8fa4dca0aa1,AcceptabilityJudgment,419,0,whint-2,58,NULL,5,NULL,1433
1417475130,fd965d0e4e42bfe1c6a4f8fa4dca0aa1,AcceptabilityJudgment,334,0,garnet-1,41,undefined
1417475130,fd965d0e4e42bfe1c6a4f8fa4dca0aa1,AcceptabilityJudgment,334,0,garnet-1,41,NULL,6,NULL,1260
1417475130,fd965d0e4e42bfe1c6a4f8fa4dca0aa1,AcceptabilityJudgment,23,0,garnet-2,2,undefined
1417475130,fd965d0e4e42bfe1c6a4f8fa4dca0aa1,AcceptabilityJudgment,23,0,garnet-2,2,NULL,6,NULL,7042
1417475130,fd965d0e4e42bfe1c6a4f8fa4dca0aa1,AcceptabilityJudgment,405,0,mauner-2,52,undefined
1417475130,fd965d0e4e42bfe1c6a4f8fa4dca0aa1,AcceptabilityJudgment,405,0,mauner-2,52,NULL,6,NULL,835
1417475130,fd965d0e4e42bfe1c6a4f8fa4dca0aa1,AcceptabilityJudgment,528,0,filler,99,undefined
1417475130,fd965d0e4e42bfe1c6a4f8fa4dca0aa1,AcceptabilityJudgment,528,0,filler,99,NULL,5,NULL,1005
1417475130,fd965d0e4e42bfe1c6a4f8fa4dca0aa1,AcceptabilityJudgment,424,0,whint-3,59,undefined
1417475130,fd965d0e4e42bfe1c6a4f8fa4dca0aa1,AcceptabilityJudgment,424,0,whint-3,59,NULL,7,NULL,1029
#
# Results on Tuesday December 02 2014 00:36:30 UTC.
# USER AGENT: Mozilla/5.0 (Windows NT 6.3; WOW64) AppleWebKit/537.36 (KHTML, like Gecko) Chrome/39.0.2171.71 Safari/537.36
# Design number was non-random = 0
#
# Columns below this comment are as follows:
# 1. Time results were received.
# 2. MD5 hash of participant's IP address.
# 3. Controller name.
# 4. Item number.
# 5. Element number.
# 6. Type.
# 7. Group.
# 8. Field name.
# 9. Field value.
1417480591,f86939bb008b03c72981f2b03d1d148e,Form,1,0,consent,NULL,consent,yes
1417480591,f86939bb008b03c72981f2b03d1d148e,Form,2,0,consent,NULL,age,45
1417480591,f86939bb008b03c72981f2b03d1d148e,Form,2,0,consent,NULL,natlang,English
1417480591,f86939bb008b03c72981f2b03d1d148e,Form,2,0,consent,NULL,state,PA
1417480591,f86939bb008b03c72981f2b03d1d148e,Form,2,0,consent,NULL,parentlang,English
1417480591,f86939bb008b03c72981f2b03d1d148e,Form,2,0,consent,NULL,domlang,English
1417480591,f86939bb008b03c72981f2b03d1d148e,Form,2,0,consent,NULL,otherlang,no
1417480591,f86939bb008b03c72981f2b03d1d148e,Form,2,0,consent,NULL,device,desktop computer
1417480591,f86939bb008b03c72981f2b03d1d148e,Form,2,0,consent,NULL,gender,female
# The lines below this comment are in groups of 2.
# The formats of the lines in each of these groups are as follows:
#
# Line 1:
#     Col. 1: Time results were received.
#     Col. 2: MD5 hash of participant's IP address.
#     Col. 3: Controller name.
#     Col. 4: Item number.
#     Col. 5: Element number.
#     Col. 6: Type.
#     Col. 7: Group.
#     Col. 8: Sentence (or sentence MD5).
# Line 2:
#     Col. 1: Time results were received.
#     Col. 2: MD5 hash of participant's IP address.
#     Col. 3: Controller name.
#     Col. 4: Item number.
#     Col. 5: Element number.
#     Col. 6: Type.
#     Col. 7: Group.
#     Col. 8: Question (NULL if none).
#     Col. 9: Answer.
#     Col. 10: Whether or not answer was correct (NULL if N/A).
#     Col. 11: Time taken to answer.
1417480591,f86939bb008b03c72981f2b03d1d148e,AcceptabilityJudgment,9,0,practice,NULL,undefined
1417480591,f86939bb008b03c72981f2b03d1d148e,AcceptabilityJudgment,9,0,practice,NULL,NULL,5,NULL,6188
1417480591,f86939bb008b03c72981f2b03d1d148e,AcceptabilityJudgment,10,0,practice,NULL,undefined
1417480591,f86939bb008b03c72981f2b03d1d148e,AcceptabilityJudgment,10,0,practice,NULL,NULL,7,NULL,3009
1417480591,f86939bb008b03c72981f2b03d1d148e,AcceptabilityJudgment,11,0,practice,NULL,undefined
1417480591,f86939bb008b03c72981f2b03d1d148e,AcceptabilityJudgment,11,0,practice,NULL,NULL,1,NULL,2555
1417480591,f86939bb008b03c72981f2b03d1d148e,AcceptabilityJudgment,12,0,practice,NULL,undefined
1417480591,f86939bb008b03c72981f2b03d1d148e,AcceptabilityJudgment,12,0,practice,NULL,NULL,4,NULL,3935
1417480591,f86939bb008b03c72981f2b03d1d148e,AcceptabilityJudgment,141,0,garnet-8,16,undefined
1417480591,f86939bb008b03c72981f2b03d1d148e,AcceptabilityJudgment,141,0,garnet-8,16,NULL,2,NULL,17640
1417480591,f86939bb008b03c72981f2b03d1d148e,AcceptabilityJudgment,59,0,garnet-6,6,undefined
1417480591,f86939bb008b03c72981f2b03d1d148e,AcceptabilityJudgment,59,0,garnet-6,6,NULL,6,NULL,6867
1417480591,f86939bb008b03c72981f2b03d1d148e,AcceptabilityJudgment,429,0,whint-4,60,undefined
1417480591,f86939bb008b03c72981f2b03d1d148e,AcceptabilityJudgment,429,0,whint-4,60,NULL,6,NULL,4902
1417480591,f86939bb008b03c72981f2b03d1d148e,AcceptabilityJudgment,14,0,garnet-1,1,undefined
1417480591,f86939bb008b03c72981f2b03d1d148e,AcceptabilityJudgment,14,0,garnet-1,1,NULL,6,NULL,4344
1417480591,f86939bb008b03c72981f2b03d1d148e,AcceptabilityJudgment,513,0,filler,84,undefined
1417480591,f86939bb008b03c72981f2b03d1d148e,AcceptabilityJudgment,513,0,filler,84,NULL,7,NULL,3825
1417480591,f86939bb008b03c72981f2b03d1d148e,AcceptabilityJudgment,50,0,garnet-5,5,undefined
1417480591,f86939bb008b03c72981f2b03d1d148e,AcceptabilityJudgment,50,0,garnet-5,5,NULL,5,NULL,7810
1417480591,f86939bb008b03c72981f2b03d1d148e,AcceptabilityJudgment,494,0,whint-1,77,undefined
1417480591,f86939bb008b03c72981f2b03d1d148e,AcceptabilityJudgment,494,0,whint-1,77,NULL,4,NULL,4783
1417480591,f86939bb008b03c72981f2b03d1d148e,AcceptabilityJudgment,333,0,garnet-8,40,undefined
1417480591,f86939bb008b03c72981f2b03d1d148e,AcceptabilityJudgment,333,0,garnet-8,40,NULL,2,NULL,8929
1417480591,f86939bb008b03c72981f2b03d1d148e,AcceptabilityJudgment,514,0,filler,85,undefined
1417480591,f86939bb008b03c72981f2b03d1d148e,AcceptabilityJudgment,514,0,filler,85,NULL,5,NULL,7130
1417480591,f86939bb008b03c72981f2b03d1d148e,AcceptabilityJudgment,270,0,garnet-1,33,undefined
1417480591,f86939bb008b03c72981f2b03d1d148e,AcceptabilityJudgment,270,0,garnet-1,33,NULL,7,NULL,4233
1417480591,f86939bb008b03c72981f2b03d1d148e,AcceptabilityJudgment,440,0,whint-3,63,undefined
1417480591,f86939bb008b03c72981f2b03d1d148e,AcceptabilityJudgment,440,0,whint-3,63,NULL,6,NULL,9258
1417480591,f86939bb008b03c72981f2b03d1d148e,AcceptabilityJudgment,78,0,garnet-1,9,undefined
1417480591,f86939bb008b03c72981f2b03d1d148e,AcceptabilityJudgment,78,0,garnet-1,9,NULL,4,NULL,8240
1417480591,f86939bb008b03c72981f2b03d1d148e,AcceptabilityJudgment,406,0,mauner-1,53,undefined
1417480591,f86939bb008b03c72981f2b03d1d148e,AcceptabilityJudgment,406,0,mauner-1,53,NULL,6,NULL,6545
1417480591,f86939bb008b03c72981f2b03d1d148e,AcceptabilityJudgment,23,0,garnet-2,2,undefined
1417480591,f86939bb008b03c72981f2b03d1d148e,AcceptabilityJudgment,23,0,garnet-2,2,NULL,3,NULL,6978
1417480591,f86939bb008b03c72981f2b03d1d148e,AcceptabilityJudgment,414,0,whint-1,57,undefined
1417480591,f86939bb008b03c72981f2b03d1d148e,AcceptabilityJudgment,414,0,whint-1,57,NULL,5,NULL,3427
1417480591,f86939bb008b03c72981f2b03d1d148e,AcceptabilityJudgment,524,0,filler,95,undefined
1417480591,f86939bb008b03c72981f2b03d1d148e,AcceptabilityJudgment,524,0,filler,95,NULL,7,NULL,3193
1417480591,f86939bb008b03c72981f2b03d1d148e,AcceptabilityJudgment,205,0,garnet-8,24,undefined
1417480591,f86939bb008b03c72981f2b03d1d148e,AcceptabilityJudgment,205,0,garnet-8,24,NULL,2,NULL,9729
1417480591,f86939bb008b03c72981f2b03d1d148e,AcceptabilityJudgment,187,0,garnet-6,22,undefined
1417480591,f86939bb008b03c72981f2b03d1d148e,AcceptabilityJudgment,187,0,garnet-6,22,NULL,4,NULL,11346
1417480591,f86939bb008b03c72981f2b03d1d148e,AcceptabilityJudgment,424,0,whint-3,59,undefined
1417480591,f86939bb008b03c72981f2b03d1d148e,AcceptabilityJudgment,424,0,whint-3,59,NULL,5,NULL,4270
1417480591,f86939bb008b03c72981f2b03d1d148e,AcceptabilityJudgment,517,0,filler,88,undefined
1417480591,f86939bb008b03c72981f2b03d1d148e,AcceptabilityJudgment,517,0,filler,88,NULL,6,NULL,4641
1417480591,f86939bb008b03c72981f2b03d1d148e,AcceptabilityJudgment,206,0,garnet-1,25,undefined
1417480591,f86939bb008b03c72981f2b03d1d148e,AcceptabilityJudgment,206,0,garnet-1,25,NULL,6,NULL,9633
1417480591,f86939bb008b03c72981f2b03d1d148e,AcceptabilityJudgment,132,0,garnet-7,15,undefined
1417480591,f86939bb008b03c72981f2b03d1d148e,AcceptabilityJudgment,132,0,garnet-7,15,NULL,5,NULL,4031
1417480591,f86939bb008b03c72981f2b03d1d148e,AcceptabilityJudgment,483,0,whint-2,74,undefined
1417480591,f86939bb008b03c72981f2b03d1d148e,AcceptabilityJudgment,483,0,whint-2,74,NULL,6,NULL,9752
1417480591,f86939bb008b03c72981f2b03d1d148e,AcceptabilityJudgment,401,0,mauner-2,50,undefined
1417480591,f86939bb008b03c72981f2b03d1d148e,AcceptabilityJudgment,401,0,mauner-2,50,NULL,7,NULL,4163
1417480591,f86939bb008b03c72981f2b03d1d148e,AcceptabilityJudgment,512,0,filler,83,undefined
1417480591,f86939bb008b03c72981f2b03d1d148e,AcceptabilityJudgment,512,0,filler,83,NULL,7,NULL,6193
1417480591,f86939bb008b03c72981f2b03d1d148e,AcceptabilityJudgment,260,0,garnet-7,31,undefined
1417480591,f86939bb008b03c72981f2b03d1d148e,AcceptabilityJudgment,260,0,garnet-7,31,NULL,3,NULL,5209
1417480591,f86939bb008b03c72981f2b03d1d148e,AcceptabilityJudgment,151,0,garnet-2,18,undefined
1417480591,f86939bb008b03c72981f2b03d1d148e,AcceptabilityJudgment,151,0,garnet-2,18,NULL,6,NULL,5138
1417480591,f86939bb008b03c72981f2b03d1d148e,AcceptabilityJudgment,504,0,whint-3,79,undefined
1417480591,f86939bb008b03c72981f2b03d1d148e,AcceptabilityJudgment,504,0,whint-3,79,NULL,5,NULL,6178
1417480591,f86939bb008b03c72981f2b03d1d148e,AcceptabilityJudgment,397,0,garnet-8,48,undefined
1417480591,f86939bb008b03c72981f2b03d1d148e,AcceptabilityJudgment,397,0,garnet-8,48,NULL,2,NULL,10409
1417480591,f86939bb008b03c72981f2b03d1d148e,AcceptabilityJudgment,518,0,filler,89,undefined
1417480591,f86939bb008b03c72981f2b03d1d148e,AcceptabilityJudgment,518,0,filler,89,NULL,7,NULL,8338
1417480591,f86939bb008b03c72981f2b03d1d148e,AcceptabilityJudgment,160,0,garnet-3,19,undefined
1417480591,f86939bb008b03c72981f2b03d1d148e,AcceptabilityJudgment,160,0,garnet-3,19,NULL,5,NULL,16465
1417480591,f86939bb008b03c72981f2b03d1d148e,AcceptabilityJudgment,446,0,whint-1,65,undefined
1417480591,f86939bb008b03c72981f2b03d1d148e,AcceptabilityJudgment,446,0,whint-1,65,NULL,5,NULL,13354
1417480591,f86939bb008b03c72981f2b03d1d148e,AcceptabilityJudgment,370,0,garnet-5,45,undefined
1417480591,f86939bb008b03c72981f2b03d1d148e,AcceptabilityJudgment,370,0,garnet-5,45,NULL,6,NULL,9730
1417480591,f86939bb008b03c72981f2b03d1d148e,AcceptabilityJudgment,527,0,filler,98,undefined
1417480591,f86939bb008b03c72981f2b03d1d148e,AcceptabilityJudgment,527,0,filler,98,NULL,7,NULL,3890
1417480591,f86939bb008b03c72981f2b03d1d148e,AcceptabilityJudgment,123,0,garnet-6,14,undefined
1417480591,f86939bb008b03c72981f2b03d1d148e,AcceptabilityJudgment,123,0,garnet-6,14,NULL,3,NULL,8258
1417480591,f86939bb008b03c72981f2b03d1d148e,AcceptabilityJudgment,445,0,whint-4,64,undefined
1417480591,f86939bb008b03c72981f2b03d1d148e,AcceptabilityJudgment,445,0,whint-4,64,NULL,7,NULL,5052
1417480591,f86939bb008b03c72981f2b03d1d148e,AcceptabilityJudgment,242,0,garnet-5,29,undefined
1417480591,f86939bb008b03c72981f2b03d1d148e,AcceptabilityJudgment,242,0,garnet-5,29,NULL,6,NULL,6370
1417480591,f86939bb008b03c72981f2b03d1d148e,AcceptabilityJudgment,398,0,mauner-1,49,undefined
1417480591,f86939bb008b03c72981f2b03d1d148e,AcceptabilityJudgment,398,0,mauner-1,49,NULL,7,NULL,6025
1417480591,f86939bb008b03c72981f2b03d1d148e,AcceptabilityJudgment,114,0,garnet-5,13,undefined
1417480591,f86939bb008b03c72981f2b03d1d148e,AcceptabilityJudgment,114,0,garnet-5,13,NULL,6,NULL,4889
1417480591,f86939bb008b03c72981f2b03d1d148e,AcceptabilityJudgment,419,0,whint-2,58,undefined
1417480591,f86939bb008b03c72981f2b03d1d148e,AcceptabilityJudgment,419,0,whint-2,58,NULL,6,NULL,6475
1417480591,f86939bb008b03c72981f2b03d1d148e,AcceptabilityJudgment,528,0,filler,99,undefined
1417480591,f86939bb008b03c72981f2b03d1d148e,AcceptabilityJudgment,528,0,filler,99,NULL,7,NULL,7305
1417480591,f86939bb008b03c72981f2b03d1d148e,AcceptabilityJudgment,334,0,garnet-1,41,undefined
1417480591,f86939bb008b03c72981f2b03d1d148e,AcceptabilityJudgment,334,0,garnet-1,41,NULL,5,NULL,3779
1417480591,f86939bb008b03c72981f2b03d1d148e,AcceptabilityJudgment,343,0,garnet-2,42,undefined
1417480591,f86939bb008b03c72981f2b03d1d148e,AcceptabilityJudgment,343,0,garnet-2,42,NULL,3,NULL,8346
1417480591,f86939bb008b03c72981f2b03d1d148e,AcceptabilityJudgment,451,0,whint-2,66,undefined
1417480591,f86939bb008b03c72981f2b03d1d148e,AcceptabilityJudgment,451,0,whint-2,66,NULL,7,NULL,4313
1417480591,f86939bb008b03c72981f2b03d1d148e,AcceptabilityJudgment,529,0,filler,100,undefined
1417480591,f86939bb008b03c72981f2b03d1d148e,AcceptabilityJudgment,529,0,filler,100,NULL,7,NULL,2748
1417480591,f86939bb008b03c72981f2b03d1d148e,AcceptabilityJudgment,269,0,garnet-8,32,undefined
1417480591,f86939bb008b03c72981f2b03d1d148e,AcceptabilityJudgment,269,0,garnet-8,32,NULL,4,NULL,4082
1417480591,f86939bb008b03c72981f2b03d1d148e,AcceptabilityJudgment,32,0,garnet-3,3,undefined
1417480591,f86939bb008b03c72981f2b03d1d148e,AcceptabilityJudgment,32,0,garnet-3,3,NULL,4,NULL,15217
1417480591,f86939bb008b03c72981f2b03d1d148e,AcceptabilityJudgment,499,0,whint-2,78,undefined
1417480591,f86939bb008b03c72981f2b03d1d148e,AcceptabilityJudgment,499,0,whint-2,78,NULL,6,NULL,4257
1417480591,f86939bb008b03c72981f2b03d1d148e,AcceptabilityJudgment,515,0,filler,86,undefined
1417480591,f86939bb008b03c72981f2b03d1d148e,AcceptabilityJudgment,515,0,filler,86,NULL,7,NULL,17915
1417480591,f86939bb008b03c72981f2b03d1d148e,AcceptabilityJudgment,297,0,garnet-4,36,undefined
1417480591,f86939bb008b03c72981f2b03d1d148e,AcceptabilityJudgment,297,0,garnet-4,36,NULL,4,NULL,8070
1417480591,f86939bb008b03c72981f2b03d1d148e,AcceptabilityJudgment,402,0,mauner-1,51,undefined
1417480591,f86939bb008b03c72981f2b03d1d148e,AcceptabilityJudgment,402,0,mauner-1,51,NULL,7,NULL,3185
1417480591,f86939bb008b03c72981f2b03d1d148e,AcceptabilityJudgment,315,0,garnet-6,38,undefined
1417480591,f86939bb008b03c72981f2b03d1d148e,AcceptabilityJudgment,315,0,garnet-6,38,NULL,7,NULL,5404
1417480591,f86939bb008b03c72981f2b03d1d148e,AcceptabilityJudgment,509,0,whint-4,80,undefined
1417480591,f86939bb008b03c72981f2b03d1d148e,AcceptabilityJudgment,509,0,whint-4,80,NULL,7,NULL,3002
1417480591,f86939bb008b03c72981f2b03d1d148e,AcceptabilityJudgment,361,0,garnet-4,44,undefined
1417480591,f86939bb008b03c72981f2b03d1d148e,AcceptabilityJudgment,361,0,garnet-4,44,NULL,3,NULL,4313
1417480591,f86939bb008b03c72981f2b03d1d148e,AcceptabilityJudgment,523,0,filler,94,undefined
1417480591,f86939bb008b03c72981f2b03d1d148e,AcceptabilityJudgment,523,0,filler,94,NULL,6,NULL,8114
1417480591,f86939bb008b03c72981f2b03d1d148e,AcceptabilityJudgment,196,0,garnet-7,23,undefined
1417480591,f86939bb008b03c72981f2b03d1d148e,AcceptabilityJudgment,196,0,garnet-7,23,NULL,2,NULL,3864
1417480591,f86939bb008b03c72981f2b03d1d148e,AcceptabilityJudgment,478,0,whint-1,73,undefined
1417480591,f86939bb008b03c72981f2b03d1d148e,AcceptabilityJudgment,478,0,whint-1,73,NULL,6,NULL,3562
1417480591,f86939bb008b03c72981f2b03d1d148e,AcceptabilityJudgment,324,0,garnet-7,39,undefined
1417480591,f86939bb008b03c72981f2b03d1d148e,AcceptabilityJudgment,324,0,garnet-7,39,NULL,3,NULL,5305
1417480591,f86939bb008b03c72981f2b03d1d148e,AcceptabilityJudgment,511,0,filler,82,undefined
1417480591,f86939bb008b03c72981f2b03d1d148e,AcceptabilityJudgment,511,0,filler,82,NULL,7,NULL,298514
1417480591,f86939bb008b03c72981f2b03d1d148e,AcceptabilityJudgment,388,0,garnet-7,47,undefined
1417480591,f86939bb008b03c72981f2b03d1d148e,AcceptabilityJudgment,388,0,garnet-7,47,NULL,3,NULL,6644
1417480591,f86939bb008b03c72981f2b03d1d148e,AcceptabilityJudgment,456,0,whint-3,67,undefined
1417480591,f86939bb008b03c72981f2b03d1d148e,AcceptabilityJudgment,456,0,whint-3,67,NULL,4,NULL,6599
1417480591,f86939bb008b03c72981f2b03d1d148e,AcceptabilityJudgment,405,0,mauner-2,52,undefined
1417480591,f86939bb008b03c72981f2b03d1d148e,AcceptabilityJudgment,405,0,mauner-2,52,NULL,5,NULL,4552
1417480591,f86939bb008b03c72981f2b03d1d148e,AcceptabilityJudgment,306,0,garnet-5,37,undefined
1417480591,f86939bb008b03c72981f2b03d1d148e,AcceptabilityJudgment,306,0,garnet-5,37,NULL,5,NULL,633020
1417480591,f86939bb008b03c72981f2b03d1d148e,AcceptabilityJudgment,233,0,garnet-4,28,undefined
1417480591,f86939bb008b03c72981f2b03d1d148e,AcceptabilityJudgment,233,0,garnet-4,28,NULL,3,NULL,5978
1417480591,f86939bb008b03c72981f2b03d1d148e,AcceptabilityJudgment,430,0,whint-1,61,undefined
1417480591,f86939bb008b03c72981f2b03d1d148e,AcceptabilityJudgment,430,0,whint-1,61,NULL,5,NULL,3185
1417480591,f86939bb008b03c72981f2b03d1d148e,AcceptabilityJudgment,521,0,filler,92,undefined
1417480591,f86939bb008b03c72981f2b03d1d148e,AcceptabilityJudgment,521,0,filler,92,NULL,5,NULL,4426
1417480591,f86939bb008b03c72981f2b03d1d148e,AcceptabilityJudgment,77,0,garnet-8,8,undefined
1417480591,f86939bb008b03c72981f2b03d1d148e,AcceptabilityJudgment,77,0,garnet-8,8,NULL,2,NULL,4747
1417480591,f86939bb008b03c72981f2b03d1d148e,AcceptabilityJudgment,87,0,garnet-2,10,undefined
1417480591,f86939bb008b03c72981f2b03d1d148e,AcceptabilityJudgment,87,0,garnet-2,10,NULL,5,NULL,4720
1417480591,f86939bb008b03c72981f2b03d1d148e,AcceptabilityJudgment,435,0,whint-2,62,undefined
1417480591,f86939bb008b03c72981f2b03d1d148e,AcceptabilityJudgment,435,0,whint-2,62,NULL,6,NULL,6761
1417480591,f86939bb008b03c72981f2b03d1d148e,AcceptabilityJudgment,520,0,filler,91,undefined
1417480591,f86939bb008b03c72981f2b03d1d148e,AcceptabilityJudgment,520,0,filler,91,NULL,7,NULL,3867
1417480591,f86939bb008b03c72981f2b03d1d148e,AcceptabilityJudgment,352,0,garnet-3,43,undefined
1417480591,f86939bb008b03c72981f2b03d1d148e,AcceptabilityJudgment,352,0,garnet-3,43,NULL,3,NULL,5610
1417480591,f86939bb008b03c72981f2b03d1d148e,AcceptabilityJudgment,288,0,garnet-3,35,undefined
1417480591,f86939bb008b03c72981f2b03d1d148e,AcceptabilityJudgment,288,0,garnet-3,35,NULL,4,NULL,7131
1417480591,f86939bb008b03c72981f2b03d1d148e,AcceptabilityJudgment,477,0,whint-4,72,undefined
1417480591,f86939bb008b03c72981f2b03d1d148e,AcceptabilityJudgment,477,0,whint-4,72,NULL,6,NULL,3801
1417480591,f86939bb008b03c72981f2b03d1d148e,AcceptabilityJudgment,409,0,mauner-2,54,undefined
1417480591,f86939bb008b03c72981f2b03d1d148e,AcceptabilityJudgment,409,0,mauner-2,54,NULL,7,NULL,4344
1417480591,f86939bb008b03c72981f2b03d1d148e,AcceptabilityJudgment,224,0,garnet-3,27,undefined
1417480591,f86939bb008b03c72981f2b03d1d148e,AcceptabilityJudgment,224,0,garnet-3,27,NULL,2,NULL,3499
1417480591,f86939bb008b03c72981f2b03d1d148e,AcceptabilityJudgment,522,0,filler,93,undefined
1417480591,f86939bb008b03c72981f2b03d1d148e,AcceptabilityJudgment,522,0,filler,93,NULL,7,NULL,4259
1417480591,f86939bb008b03c72981f2b03d1d148e,AcceptabilityJudgment,169,0,garnet-4,20,undefined
1417480591,f86939bb008b03c72981f2b03d1d148e,AcceptabilityJudgment,169,0,garnet-4,20,NULL,2,NULL,3571
1417480591,f86939bb008b03c72981f2b03d1d148e,AcceptabilityJudgment,472,0,whint-3,71,undefined
1417480591,f86939bb008b03c72981f2b03d1d148e,AcceptabilityJudgment,472,0,whint-3,71,NULL,7,NULL,2674
1417480591,f86939bb008b03c72981f2b03d1d148e,AcceptabilityJudgment,215,0,garnet-2,26,undefined
1417480591,f86939bb008b03c72981f2b03d1d148e,AcceptabilityJudgment,215,0,garnet-2,26,NULL,4,NULL,3435
1417480591,f86939bb008b03c72981f2b03d1d148e,AcceptabilityJudgment,525,0,filler,96,undefined
1417480591,f86939bb008b03c72981f2b03d1d148e,AcceptabilityJudgment,525,0,filler,96,NULL,6,NULL,3922
1417480591,f86939bb008b03c72981f2b03d1d148e,AcceptabilityJudgment,178,0,garnet-5,21,undefined
1417480591,f86939bb008b03c72981f2b03d1d148e,AcceptabilityJudgment,178,0,garnet-5,21,NULL,2,NULL,4953
1417480591,f86939bb008b03c72981f2b03d1d148e,AcceptabilityJudgment,461,0,whint-4,68,undefined
1417480591,f86939bb008b03c72981f2b03d1d148e,AcceptabilityJudgment,461,0,whint-4,68,NULL,6,NULL,14779
1417480591,f86939bb008b03c72981f2b03d1d148e,AcceptabilityJudgment,142,0,garnet-1,17,undefined
1417480591,f86939bb008b03c72981f2b03d1d148e,AcceptabilityJudgment,142,0,garnet-1,17,NULL,7,NULL,5719
1417480591,f86939bb008b03c72981f2b03d1d148e,AcceptabilityJudgment,510,0,filler,81,undefined
1417480591,f86939bb008b03c72981f2b03d1d148e,AcceptabilityJudgment,510,0,filler,81,NULL,3,NULL,6410
1417480591,f86939bb008b03c72981f2b03d1d148e,AcceptabilityJudgment,251,0,garnet-6,30,undefined
1417480591,f86939bb008b03c72981f2b03d1d148e,AcceptabilityJudgment,251,0,garnet-6,30,NULL,6,NULL,4337
1417480591,f86939bb008b03c72981f2b03d1d148e,AcceptabilityJudgment,488,0,whint-3,75,undefined
1417480591,f86939bb008b03c72981f2b03d1d148e,AcceptabilityJudgment,488,0,whint-3,75,NULL,6,NULL,2507
1417480591,f86939bb008b03c72981f2b03d1d148e,AcceptabilityJudgment,410,0,mauner-1,55,undefined
1417480591,f86939bb008b03c72981f2b03d1d148e,AcceptabilityJudgment,410,0,mauner-1,55,NULL,6,NULL,4714
1417480591,f86939bb008b03c72981f2b03d1d148e,AcceptabilityJudgment,41,0,garnet-4,4,undefined
1417480591,f86939bb008b03c72981f2b03d1d148e,AcceptabilityJudgment,41,0,garnet-4,4,NULL,2,NULL,3547
1417480591,f86939bb008b03c72981f2b03d1d148e,AcceptabilityJudgment,105,0,garnet-4,12,undefined
1417480591,f86939bb008b03c72981f2b03d1d148e,AcceptabilityJudgment,105,0,garnet-4,12,NULL,2,NULL,5355
1417480591,f86939bb008b03c72981f2b03d1d148e,AcceptabilityJudgment,493,0,whint-4,76,undefined
1417480591,f86939bb008b03c72981f2b03d1d148e,AcceptabilityJudgment,493,0,whint-4,76,NULL,7,NULL,4090
1417480591,f86939bb008b03c72981f2b03d1d148e,AcceptabilityJudgment,526,0,filler,97,undefined
1417480591,f86939bb008b03c72981f2b03d1d148e,AcceptabilityJudgment,526,0,filler,97,NULL,7,NULL,3186
1417480591,f86939bb008b03c72981f2b03d1d148e,AcceptabilityJudgment,379,0,garnet-6,46,undefined
1417480591,f86939bb008b03c72981f2b03d1d148e,AcceptabilityJudgment,379,0,garnet-6,46,NULL,4,NULL,3716
1417480591,f86939bb008b03c72981f2b03d1d148e,AcceptabilityJudgment,68,0,garnet-7,7,undefined
1417480591,f86939bb008b03c72981f2b03d1d148e,AcceptabilityJudgment,68,0,garnet-7,7,NULL,3,NULL,7853
1417480591,f86939bb008b03c72981f2b03d1d148e,AcceptabilityJudgment,462,0,whint-1,69,undefined
1417480591,f86939bb008b03c72981f2b03d1d148e,AcceptabilityJudgment,462,0,whint-1,69,NULL,6,NULL,4148
1417480591,f86939bb008b03c72981f2b03d1d148e,AcceptabilityJudgment,519,0,filler,90,undefined
1417480591,f86939bb008b03c72981f2b03d1d148e,AcceptabilityJudgment,519,0,filler,90,NULL,6,NULL,6819
1417480591,f86939bb008b03c72981f2b03d1d148e,AcceptabilityJudgment,96,0,garnet-3,11,undefined
1417480591,f86939bb008b03c72981f2b03d1d148e,AcceptabilityJudgment,96,0,garnet-3,11,NULL,3,NULL,6636
1417480591,f86939bb008b03c72981f2b03d1d148e,AcceptabilityJudgment,279,0,garnet-2,34,undefined
1417480591,f86939bb008b03c72981f2b03d1d148e,AcceptabilityJudgment,279,0,garnet-2,34,NULL,2,NULL,5567
1417480591,f86939bb008b03c72981f2b03d1d148e,AcceptabilityJudgment,467,0,whint-2,70,undefined
1417480591,f86939bb008b03c72981f2b03d1d148e,AcceptabilityJudgment,467,0,whint-2,70,NULL,5,NULL,5873
1417480591,f86939bb008b03c72981f2b03d1d148e,AcceptabilityJudgment,413,0,mauner-2,56,undefined
1417480591,f86939bb008b03c72981f2b03d1d148e,AcceptabilityJudgment,413,0,mauner-2,56,NULL,7,NULL,7867
1417480591,f86939bb008b03c72981f2b03d1d148e,AcceptabilityJudgment,516,0,filler,87,undefined
1417480591,f86939bb008b03c72981f2b03d1d148e,AcceptabilityJudgment,516,0,filler,87,NULL,7,NULL,5210
# Columns below this comment are as follows:
# 1. Time results were received.
# 2. MD5 hash of participant's IP address.
# 3. Controller name.
# 4. Item number.
# 5. Element number.
# 6. Type.
# 7. Group.
# 8. Field name.
# 9. Field value.
1417480591,f86939bb008b03c72981f2b03d1d148e,Form,3,0,exit,NULL,identifier,xgTGiwWL
1417480591,f86939bb008b03c72981f2b03d1d148e,Form,3,0,exit,NULL,worker_id,ACVEFRSUAPSEQ%0A
#
# Results on Tuesday December 02 2014 01:04:01 UTC.
# USER AGENT: Mozilla/5.0 (Windows NT 6.1; WOW64) AppleWebKit/537.36 (KHTML, like Gecko) Chrome/39.0.2171.71 Safari/537.36
# Design number was non-random = 1
#
# Columns below this comment are as follows:
# 1. Time results were received.
# 2. MD5 hash of participant's IP address.
# 3. Controller name.
# 4. Item number.
# 5. Element number.
# 6. Type.
# 7. Group.
# 8. Field name.
# 9. Field value.
1417482241,adc9619898bf6ec3a7784adb83e48ade,Form,1,0,consent,NULL,consent,yes
1417482241,adc9619898bf6ec3a7784adb83e48ade,Form,2,0,consent,NULL,age,72
1417482241,adc9619898bf6ec3a7784adb83e48ade,Form,2,0,consent,NULL,natlang,English
1417482241,adc9619898bf6ec3a7784adb83e48ade,Form,2,0,consent,NULL,state,Michigan
1417482241,adc9619898bf6ec3a7784adb83e48ade,Form,2,0,consent,NULL,parentlang,English
1417482241,adc9619898bf6ec3a7784adb83e48ade,Form,2,0,consent,NULL,domlang,English
1417482241,adc9619898bf6ec3a7784adb83e48ade,Form,2,0,consent,NULL,otherlang,No
1417482241,adc9619898bf6ec3a7784adb83e48ade,Form,2,0,consent,NULL,device,Desktop Computer
1417482241,adc9619898bf6ec3a7784adb83e48ade,Form,2,0,consent,NULL,gender,female
# The lines below this comment are in groups of 2.
# The formats of the lines in each of these groups are as follows:
#
# Line 1:
#     Col. 1: Time results were received.
#     Col. 2: MD5 hash of participant's IP address.
#     Col. 3: Controller name.
#     Col. 4: Item number.
#     Col. 5: Element number.
#     Col. 6: Type.
#     Col. 7: Group.
#     Col. 8: Sentence (or sentence MD5).
# Line 2:
#     Col. 1: Time results were received.
#     Col. 2: MD5 hash of participant's IP address.
#     Col. 3: Controller name.
#     Col. 4: Item number.
#     Col. 5: Element number.
#     Col. 6: Type.
#     Col. 7: Group.
#     Col. 8: Question (NULL if none).
#     Col. 9: Answer.
#     Col. 10: Whether or not answer was correct (NULL if N/A).
#     Col. 11: Time taken to answer.
1417482241,adc9619898bf6ec3a7784adb83e48ade,AcceptabilityJudgment,9,0,practice,NULL,undefined
1417482241,adc9619898bf6ec3a7784adb83e48ade,AcceptabilityJudgment,9,0,practice,NULL,NULL,3,NULL,15564
1417482241,adc9619898bf6ec3a7784adb83e48ade,AcceptabilityJudgment,10,0,practice,NULL,undefined
1417482241,adc9619898bf6ec3a7784adb83e48ade,AcceptabilityJudgment,10,0,practice,NULL,NULL,7,NULL,9985
1417482241,adc9619898bf6ec3a7784adb83e48ade,AcceptabilityJudgment,11,0,practice,NULL,undefined
1417482241,adc9619898bf6ec3a7784adb83e48ade,AcceptabilityJudgment,11,0,practice,NULL,NULL,1,NULL,5046
1417482241,adc9619898bf6ec3a7784adb83e48ade,AcceptabilityJudgment,12,0,practice,NULL,undefined
1417482241,adc9619898bf6ec3a7784adb83e48ade,AcceptabilityJudgment,12,0,practice,NULL,NULL,7,NULL,4471
1417482241,adc9619898bf6ec3a7784adb83e48ade,AcceptabilityJudgment,133,0,garnet-8,15,undefined
1417482241,adc9619898bf6ec3a7784adb83e48ade,AcceptabilityJudgment,133,0,garnet-8,15,NULL,6,NULL,18467
1417482241,adc9619898bf6ec3a7784adb83e48ade,AcceptabilityJudgment,97,0,garnet-4,11,undefined
1417482241,adc9619898bf6ec3a7784adb83e48ade,AcceptabilityJudgment,97,0,garnet-4,11,NULL,3,NULL,19587
1417482241,adc9619898bf6ec3a7784adb83e48ade,AcceptabilityJudgment,415,0,whint-2,57,undefined
1417482241,adc9619898bf6ec3a7784adb83e48ade,AcceptabilityJudgment,415,0,whint-2,57,NULL,7,NULL,9100
1417482241,adc9619898bf6ec3a7784adb83e48ade,AcceptabilityJudgment,514,0,filler,85,undefined
1417482241,adc9619898bf6ec3a7784adb83e48ade,AcceptabilityJudgment,514,0,filler,85,NULL,7,NULL,5722
1417482241,adc9619898bf6ec3a7784adb83e48ade,AcceptabilityJudgment,115,0,garnet-6,13,undefined
1417482241,adc9619898bf6ec3a7784adb83e48ade,AcceptabilityJudgment,115,0,garnet-6,13,NULL,7,NULL,5787
1417482241,adc9619898bf6ec3a7784adb83e48ade,AcceptabilityJudgment,325,0,garnet-8,39,undefined
1417482241,adc9619898bf6ec3a7784adb83e48ade,AcceptabilityJudgment,325,0,garnet-8,39,NULL,1,NULL,20218
1417482241,adc9619898bf6ec3a7784adb83e48ade,AcceptabilityJudgment,447,0,whint-2,65,undefined
1417482241,adc9619898bf6ec3a7784adb83e48ade,AcceptabilityJudgment,447,0,whint-2,65,NULL,7,NULL,7076
1417482241,adc9619898bf6ec3a7784adb83e48ade,AcceptabilityJudgment,527,0,filler,98,undefined
1417482241,adc9619898bf6ec3a7784adb83e48ade,AcceptabilityJudgment,527,0,filler,98,NULL,7,NULL,5938
1417482241,adc9619898bf6ec3a7784adb83e48ade,AcceptabilityJudgment,143,0,garnet-2,17,undefined
1417482241,adc9619898bf6ec3a7784adb83e48ade,AcceptabilityJudgment,143,0,garnet-2,17,NULL,7,NULL,8007
1417482241,adc9619898bf6ec3a7784adb83e48ade,AcceptabilityJudgment,134,0,garnet-1,16,undefined
1417482241,adc9619898bf6ec3a7784adb83e48ade,AcceptabilityJudgment,134,0,garnet-1,16,NULL,7,NULL,10303
1417482241,adc9619898bf6ec3a7784adb83e48ade,AcceptabilityJudgment,484,0,whint-3,74,undefined
1417482241,adc9619898bf6ec3a7784adb83e48ade,AcceptabilityJudgment,484,0,whint-3,74,NULL,5,NULL,18491
1417482241,adc9619898bf6ec3a7784adb83e48ade,AcceptabilityJudgment,326,0,garnet-1,40,undefined
1417482241,adc9619898bf6ec3a7784adb83e48ade,AcceptabilityJudgment,326,0,garnet-1,40,NULL,7,NULL,9809
1417482241,adc9619898bf6ec3a7784adb83e48ade,AcceptabilityJudgment,412,0,mauner-1,56,undefined
1417482241,adc9619898bf6ec3a7784adb83e48ade,AcceptabilityJudgment,412,0,mauner-1,56,NULL,7,NULL,13464
1417482241,adc9619898bf6ec3a7784adb83e48ade,AcceptabilityJudgment,513,0,filler,84,undefined
1417482241,adc9619898bf6ec3a7784adb83e48ade,AcceptabilityJudgment,513,0,filler,84,NULL,7,NULL,6426
1417482241,adc9619898bf6ec3a7784adb83e48ade,AcceptabilityJudgment,51,0,garnet-6,5,undefined
1417482241,adc9619898bf6ec3a7784adb83e48ade,AcceptabilityJudgment,51,0,garnet-6,5,NULL,7,NULL,8930
1417482241,adc9619898bf6ec3a7784adb83e48ade,AcceptabilityJudgment,473,0,whint-4,71,undefined
1417482241,adc9619898bf6ec3a7784adb83e48ade,AcceptabilityJudgment,473,0,whint-4,71,NULL,7,NULL,12193
1417482241,adc9619898bf6ec3a7784adb83e48ade,AcceptabilityJudgment,261,0,garnet-8,31,undefined
1417482241,adc9619898bf6ec3a7784adb83e48ade,AcceptabilityJudgment,261,0,garnet-8,31,NULL,2,NULL,13860
1417482241,adc9619898bf6ec3a7784adb83e48ade,AcceptabilityJudgment,517,0,filler,88,undefined
1417482241,adc9619898bf6ec3a7784adb83e48ade,AcceptabilityJudgment,517,0,filler,88,NULL,6,NULL,17195
1417482241,adc9619898bf6ec3a7784adb83e48ade,AcceptabilityJudgment,344,0,garnet-3,42,undefined
1417482241,adc9619898bf6ec3a7784adb83e48ade,AcceptabilityJudgment,344,0,garnet-3,42,NULL,1,NULL,8000
1417482241,adc9619898bf6ec3a7784adb83e48ade,AcceptabilityJudgment,458,0,whint-1,68,undefined
1417482241,adc9619898bf6ec3a7784adb83e48ade,AcceptabilityJudgment,458,0,whint-1,68,NULL,1,NULL,12170
1417482241,adc9619898bf6ec3a7784adb83e48ade,AcceptabilityJudgment,60,0,garnet-7,6,undefined
1417482241,adc9619898bf6ec3a7784adb83e48ade,AcceptabilityJudgment,60,0,garnet-7,6,NULL,1,NULL,12596
1417482241,adc9619898bf6ec3a7784adb83e48ade,AcceptabilityJudgment,526,0,filler,97,undefined
1417482241,adc9619898bf6ec3a7784adb83e48ade,AcceptabilityJudgment,526,0,filler,97,NULL,7,NULL,7317
1417482241,adc9619898bf6ec3a7784adb83e48ade,AcceptabilityJudgment,33,0,garnet-4,3,undefined
1417482241,adc9619898bf6ec3a7784adb83e48ade,AcceptabilityJudgment,33,0,garnet-4,3,NULL,1,NULL,6863
1417482241,adc9619898bf6ec3a7784adb83e48ade,AcceptabilityJudgment,411,0,mauner-2,55,undefined
1417482241,adc9619898bf6ec3a7784adb83e48ade,AcceptabilityJudgment,411,0,mauner-2,55,NULL,7,NULL,11274
1417482241,adc9619898bf6ec3a7784adb83e48ade,AcceptabilityJudgment,495,0,whint-2,77,undefined
1417482241,adc9619898bf6ec3a7784adb83e48ade,AcceptabilityJudgment,495,0,whint-2,77,NULL,7,NULL,17587
1417482241,adc9619898bf6ec3a7784adb83e48ade,AcceptabilityJudgment,161,0,garnet-4,19,undefined
1417482241,adc9619898bf6ec3a7784adb83e48ade,AcceptabilityJudgment,161,0,garnet-4,19,NULL,1,NULL,7473
1417482241,adc9619898bf6ec3a7784adb83e48ade,AcceptabilityJudgment,24,0,garnet-3,2,undefined
1417482241,adc9619898bf6ec3a7784adb83e48ade,AcceptabilityJudgment,24,0,garnet-3,2,NULL,7,NULL,7774
1417482241,adc9619898bf6ec3a7784adb83e48ade,AcceptabilityJudgment,431,0,whint-2,61,undefined
1417482241,adc9619898bf6ec3a7784adb83e48ade,AcceptabilityJudgment,431,0,whint-2,61,NULL,7,NULL,32084
1417482241,adc9619898bf6ec3a7784adb83e48ade,AcceptabilityJudgment,521,0,filler,92,undefined
1417482241,adc9619898bf6ec3a7784adb83e48ade,AcceptabilityJudgment,521,0,filler,92,NULL,7,NULL,5192
1417482241,adc9619898bf6ec3a7784adb83e48ade,AcceptabilityJudgment,252,0,garnet-7,30,undefined
1417482241,adc9619898bf6ec3a7784adb83e48ade,AcceptabilityJudgment,252,0,garnet-7,30,NULL,1,NULL,11430
1417482241,adc9619898bf6ec3a7784adb83e48ade,AcceptabilityJudgment,389,0,garnet-8,47,undefined
1417482241,adc9619898bf6ec3a7784adb83e48ade,AcceptabilityJudgment,389,0,garnet-8,47,NULL,1,NULL,14392
1417482241,adc9619898bf6ec3a7784adb83e48ade,AcceptabilityJudgment,500,0,whint-3,78,undefined
1417482241,adc9619898bf6ec3a7784adb83e48ade,AcceptabilityJudgment,500,0,whint-3,78,NULL,5,NULL,10627
1417482241,adc9619898bf6ec3a7784adb83e48ade,AcceptabilityJudgment,510,0,filler,81,undefined
1417482241,adc9619898bf6ec3a7784adb83e48ade,AcceptabilityJudgment,510,0,filler,81,NULL,1,NULL,8493
1417482241,adc9619898bf6ec3a7784adb83e48ade,AcceptabilityJudgment,371,0,garnet-6,45,undefined
1417482241,adc9619898bf6ec3a7784adb83e48ade,AcceptabilityJudgment,371,0,garnet-6,45,NULL,7,NULL,10448
1417482241,adc9619898bf6ec3a7784adb83e48ade,AcceptabilityJudgment,335,0,garnet-2,41,undefined
1417482241,adc9619898bf6ec3a7784adb83e48ade,AcceptabilityJudgment,335,0,garnet-2,41,NULL,1,NULL,12040
1417482241,adc9619898bf6ec3a7784adb83e48ade,AcceptabilityJudgment,436,0,whint-3,62,undefined
1417482241,adc9619898bf6ec3a7784adb83e48ade,AcceptabilityJudgment,436,0,whint-3,62,NULL,2,NULL,11304
1417482241,adc9619898bf6ec3a7784adb83e48ade,AcceptabilityJudgment,280,0,garnet-3,34,undefined
1417482241,adc9619898bf6ec3a7784adb83e48ade,AcceptabilityJudgment,280,0,garnet-3,34,NULL,6,NULL,14199
1417482241,adc9619898bf6ec3a7784adb83e48ade,AcceptabilityJudgment,400,0,mauner-1,50,undefined
1417482241,adc9619898bf6ec3a7784adb83e48ade,AcceptabilityJudgment,400,0,mauner-1,50,NULL,7,NULL,5308
1417482241,adc9619898bf6ec3a7784adb83e48ade,AcceptabilityJudgment,529,0,filler,100,undefined
1417482241,adc9619898bf6ec3a7784adb83e48ade,AcceptabilityJudgment,529,0,filler,100,NULL,7,NULL,4965
1417482241,adc9619898bf6ec3a7784adb83e48ade,AcceptabilityJudgment,298,0,garnet-5,36,undefined
1417482241,adc9619898bf6ec3a7784adb83e48ade,AcceptabilityJudgment,298,0,garnet-5,36,NULL,7,NULL,5660
1417482241,adc9619898bf6ec3a7784adb83e48ade,AcceptabilityJudgment,442,0,whint-1,64,undefined
1417482241,adc9619898bf6ec3a7784adb83e48ade,AcceptabilityJudgment,442,0,whint-1,64,NULL,2,NULL,11668
1417482241,adc9619898bf6ec3a7784adb83e48ade,AcceptabilityJudgment,207,0,garnet-2,25,undefined
1417482241,adc9619898bf6ec3a7784adb83e48ade,AcceptabilityJudgment,207,0,garnet-2,25,NULL,7,NULL,10315
1417482241,adc9619898bf6ec3a7784adb83e48ade,AcceptabilityJudgment,519,0,filler,90,undefined
1417482241,adc9619898bf6ec3a7784adb83e48ade,AcceptabilityJudgment,519,0,filler,90,NULL,7,NULL,10147
1417482241,adc9619898bf6ec3a7784adb83e48ade,AcceptabilityJudgment,271,0,garnet-2,33,undefined
