#
# Results on Thursday April 20 2017 21:48:42 UTC.
# USER AGENT: Mozilla/5.0 (Windows NT 10.0; WOW64) AppleWebKit/537.36 (KHTML, like Gecko) Chrome/57.0.2987.133 Safari/537.36
# Design number was non-random = 0
#
# Columns below this comment are as follows:
# 1. Time results were received.
# 2. MD5 hash of participant's IP address.
# 3. Controller name.
# 4. Item number.
# 5. Element number.
# 6. Type.
# 7. Group.
# 8. Field name.
# 9. Field value.
1492724922,7109a2f832c33214e4681916a6297674,Form,2,0,consent,NULL,workerID,A7KLTVEIASF4J
1492724922,7109a2f832c33214e4681916a6297674,Form,3,0,consent,NULL,consent,yes
1492724922,7109a2f832c33214e4681916a6297674,SSForm,4,0,consent,NULL,nLang,English
1492724922,7109a2f832c33214e4681916a6297674,SSForm,4,0,consent,NULL,pLang,English
1492724922,7109a2f832c33214e4681916a6297674,SSForm,4,0,consent,NULL,oLang,none
1492724922,7109a2f832c33214e4681916a6297674,SSForm,4,0,consent,NULL,dLang,English
1492724922,7109a2f832c33214e4681916a6297674,SSForm,4,0,consent,NULL,gender,male
1492724922,7109a2f832c33214e4681916a6297674,SSForm,4,0,consent,NULL,age,25
1492724922,7109a2f832c33214e4681916a6297674,SSForm,4,0,consent,NULL,state,AL
# The lines below this comment are in groups of 2.
# The formats of the lines in each of these groups are as follows:
#
# Line 1:
#     Col. 1: Time results were received.
#     Col. 2: MD5 hash of participant's IP address.
#     Col. 3: Controller name.
#     Col. 4: Item number.
#     Col. 5: Element number.
#     Col. 6: Type.
#     Col. 7: Group.
#     Col. 8: Sentence (or sentence MD5).
# Line 2:
#     Col. 1: Time results were received.
#     Col. 2: MD5 hash of participant's IP address.
#     Col. 3: Controller name.
#     Col. 4: Item number.
#     Col. 5: Element number.
#     Col. 6: Type.
#     Col. 7: Group.
#     Col. 8: Question (NULL if none).
#     Col. 9: Answer.
#     Col. 10: Whether or not answer was correct (NULL if N/A).
#     Col. 11: Time taken to answer.
1492724922,7109a2f832c33214e4681916a6297674,AcceptabilityJudgment,13,0,practice,NULL,div%2Cp%2CContext: It was Christmas time%2C and everyone was really excited.%2Cp%2CTarget: The kids decorated the ornaments onto the tree.
1492724922,7109a2f832c33214e4681916a6297674,AcceptabilityJudgment,13,0,practice,NULL,NULL,7,NULL,6691
1492724922,7109a2f832c33214e4681916a6297674,AcceptabilityJudgment,14,0,practice,NULL,div%2Cp%2CContext: John asked me yesterday who all was going to be coming over.%2Cp%2CTarget: I know that Bill and Mary were planning on attending the party last night.
1492724922,7109a2f832c33214e4681916a6297674,AcceptabilityJudgment,14,0,practice,NULL,NULL,7,NULL,6525
1492724922,7109a2f832c33214e4681916a6297674,AcceptabilityJudgment,15,0,practice,NULL,div%2Cp%2CContext: Mary is usually fairly skeptical of public officials.%2Cp%2CTarget: Which politician did she believe the scientist and?
1492724922,7109a2f832c33214e4681916a6297674,AcceptabilityJudgment,15,0,practice,NULL,NULL,5,NULL,7340
1492724922,7109a2f832c33214e4681916a6297674,AcceptabilityJudgment,16,0,practice,NULL,div%2Cp%2CContext: Unfortunately%2C Susy was a little bit out of the social loop.%2Cp%2CTarget: John doubted that she knew anything of what went on after work.
1492724922,7109a2f832c33214e4681916a6297674,AcceptabilityJudgment,16,0,practice,NULL,NULL,2,NULL,2837
1492724922,7109a2f832c33214e4681916a6297674,AcceptabilityJudgment,259,0,filler-110,62,div%2Cp%2CContext: After the extremely dull meeting%2C I convinced some coworkers to go out for drinks.%2Cp%2CTarget: The office secretary said that I thoroughly embarrassed myself at the bar.
1492724922,7109a2f832c33214e4681916a6297674,AcceptabilityJudgment,259,0,filler-110,62,NULL,5,NULL,99496
1492724922,7109a2f832c33214e4681916a6297674,AcceptabilityJudgment,250,0,filler-100,53,div%2Cp%2CContext: The neighboring city has some really excellent butchers.%2Cp%2CTarget: Joan didn't remember who the butcher who sold organic beef had hired to deliver his meat.
1492724922,7109a2f832c33214e4681916a6297674,AcceptabilityJudgment,250,0,filler-100,53,NULL,5,NULL,1539
1492724922,7109a2f832c33214e4681916a6297674,AcceptabilityJudgment,104,0,pearl-3,15,div%2Cp%2CContext: Some girl scouts were brought in to give advice on wilderness survival.%2Cp%2CTarget: The proud mother boasted that they taught herself how to build a fire using only two sticks and a rock.
1492724922,7109a2f832c33214e4681916a6297674,AcceptabilityJudgment,104,0,pearl-3,15,NULL,5,NULL,13777
1492724922,7109a2f832c33214e4681916a6297674,AcceptabilityJudgment,240,0,filler-100,43,div%2Cp%2CContext: The huge accident on the highway actually only injured one person.%2Cp%2CTarget: The cop wondered who the victim%2C who was recovering slowly%2C would blame for the accident.
1492724922,7109a2f832c33214e4681916a6297674,AcceptabilityJudgment,240,0,filler-100,43,NULL,2,NULL,1693
1492724922,7109a2f832c33214e4681916a6297674,AcceptabilityJudgment,234,0,filler-100,37,div%2Cp%2CContext: A lot of really interesting customers came into the butcher shop today.%2Cp%2CTarget: The butcher asked who the customer who bought Italian sausage had invited to dinner tonight.
1492724922,7109a2f832c33214e4681916a6297674,AcceptabilityJudgment,234,0,filler-100,37,NULL,4,NULL,1071
1492724922,7109a2f832c33214e4681916a6297674,AcceptabilityJudgment,154,0,pearl-5,23,div%2Cp%2CContext: I had been harping on the issue of immigration reform for a long while.%2Cp%2CTarget: The republican congressman complained that I represented himself poorly to the public.
1492724922,7109a2f832c33214e4681916a6297674,AcceptabilityJudgment,154,0,pearl-5,23,NULL,5,NULL,823
1492724922,7109a2f832c33214e4681916a6297674,AcceptabilityJudgment,285,0,filler-110,88,div%2Cp%2CContext: Until quite recently%2C I hadn't realized that hyenas are actually more closely related to cats than to dogs.%2Cp%2CTarget: The condescending biologist claimed that I was the first person he had met who didn't know this.
1492724922,7109a2f832c33214e4681916a6297674,AcceptabilityJudgment,285,0,filler-110,88,NULL,4,NULL,1064
1492724922,7109a2f832c33214e4681916a6297674,AcceptabilityJudgment,239,0,filler-100,42,div%2Cp%2CContext: Some of the dancers really didn't seem to be focusing on practice this morning.%2Cp%2CTarget: The choreographer didn't know if the dancer who danced clumsily had run into anyone during practice.
1492724922,7109a2f832c33214e4681916a6297674,AcceptabilityJudgment,239,0,filler-100,42,NULL,4,NULL,33449
1492724922,7109a2f832c33214e4681916a6297674,AcceptabilityJudgment,53,0,pearl-6,6,div%2Cp%2CContext: Several newspapers reported that I recommended the financier for the job.%2Cp%2CTarget: The skilled businessman mentioned that I described herself as hardworking and industrious during the interview.
1492724922,7109a2f832c33214e4681916a6297674,AcceptabilityJudgment,53,0,pearl-6,6,NULL,5,NULL,501
1492724922,7109a2f832c33214e4681916a6297674,AcceptabilityJudgment,260,0,filler-110,63,div%2Cp%2CContext: In a recent half marathon in San Diego%2C I finished dead last.%2Cp%2CTarget: The emergency nurse insisted I hadn't emasculated myself despite taking over eight hours to finish.
1492724922,7109a2f832c33214e4681916a6297674,AcceptabilityJudgment,260,0,filler-110,63,NULL,4,NULL,681
1492724922,7109a2f832c33214e4681916a6297674,AcceptabilityJudgment,298,0,filler-110,101,div%2Cp%2CContext: The mugshot showed a very prominent tattoo on the suspect's back.%2Cp%2CTarget:  The policeman hoped that it would help them track him down for arrest.
1492724922,7109a2f832c33214e4681916a6297674,AcceptabilityJudgment,298,0,filler-110,101,NULL,5,NULL,607
1492724922,7109a2f832c33214e4681916a6297674,AcceptabilityJudgment,219,0,pearl-4,34,div%2Cp%2CContext: Some of the state-recommended psychologists encouraged gambling addicts to take up exercising to avoid temptation.%2Cp%2CTarget: The wealthy heiress said that they prevented himself from losing any more money at the casino.
1492724922,7109a2f832c33214e4681916a6297674,AcceptabilityJudgment,219,0,pearl-4,34,NULL,5,NULL,22055
1492724922,7109a2f832c33214e4681916a6297674,AcceptabilityJudgment,268,0,filler-110,71,div%2Cp%2CContext: Unlike many people%2C I don't enjoy scary rides at amusement parks.%2Cp%2CTarget: The concession stand employee agreed that I should confine myself to eating popsicles all day instead.
1492724922,7109a2f832c33214e4681916a6297674,AcceptabilityJudgment,268,0,filler-110,71,NULL,3,NULL,3146
1492724922,7109a2f832c33214e4681916a6297674,AcceptabilityJudgment,292,0,filler-110,95,div%2Cp%2CContext: As a member of the Free Masons%2C I always laugh at conspiracy theories.%2Cp%2CTarget: The president of the club insists that I should be more concerned with public perception.
1492724922,7109a2f832c33214e4681916a6297674,AcceptabilityJudgment,292,0,filler-110,95,NULL,4,NULL,2623
1492724922,7109a2f832c33214e4681916a6297674,AcceptabilityJudgment,39,0,pearl-4,4,div%2Cp%2CContext: In a highly contentious criminal case%2C some people were frequently misquoted.%2Cp%2CTarget: The male witness said that they misrepresented herself in the trial but the jury didn't buy it.
1492724922,7109a2f832c33214e4681916a6297674,AcceptabilityJudgment,39,0,pearl-4,4,NULL,6,NULL,28401
1492724922,7109a2f832c33214e4681916a6297674,AcceptabilityJudgment,277,0,filler-110,80,div%2Cp%2CContext: A fake news program ruffled a lot of feathers with a recent skit about famous politicians.%2Cp%2CTarget: The political pundit was outraged that it billed itself as a legitimate news source.
1492724922,7109a2f832c33214e4681916a6297674,AcceptabilityJudgment,277,0,filler-110,80,NULL,5,NULL,1311
1492724922,7109a2f832c33214e4681916a6297674,AcceptabilityJudgment,299,0,filler-110,102,div%2Cp%2CContext: In the middle of the severe storm%2C an emergency broadcast was sent out to warn about potential flooding.%2Cp%2CTarget: The weatherman worried that it wouldn't reach enough people in time.
1492724922,7109a2f832c33214e4681916a6297674,AcceptabilityJudgment,299,0,filler-110,102,NULL,5,NULL,20600
1492724922,7109a2f832c33214e4681916a6297674,AcceptabilityJudgment,233,0,pearl-6,36,div%2Cp%2CContext: I came up in a conversation about promotion possibilities in the office.%2Cp%2CTarget: The exasperated secretary declared that I denied himself a chance at advancing in the company.
1492724922,7109a2f832c33214e4681916a6297674,AcceptabilityJudgment,233,0,pearl-6,36,NULL,6,NULL,5631
1492724922,7109a2f832c33214e4681916a6297674,AcceptabilityJudgment,266,0,filler-110,69,div%2Cp%2CContext: Since becoming a devout buddhist%2C I haven't eaten any meat.%2Cp%2CTarget: The local butcher doesn't understand why I would limit myself to only eating vegetables.
1492724922,7109a2f832c33214e4681916a6297674,AcceptabilityJudgment,266,0,filler-110,69,NULL,5,NULL,2784
1492724922,7109a2f832c33214e4681916a6297674,AcceptabilityJudgment,269,0,filler-110,72,div%2Cp%2CContext: I've never been to a protest or rally in my life.%2Cp%2CTarget: The FBI agent said that I cleared myself of wrongdoing by being so thoroughly a-political.
1492724922,7109a2f832c33214e4681916a6297674,AcceptabilityJudgment,269,0,filler-110,72,NULL,5,NULL,9457
1492724922,7109a2f832c33214e4681916a6297674,AcceptabilityJudgment,133,0,pearl-2,20,div%2Cp%2CContext: One of the union reps adressed the issue of over-working student interns.%2Cp%2CTarget: The industrious schoolgirl said that Matthew allowed himself to take a break from archiving.
1492724922,7109a2f832c33214e4681916a6297674,AcceptabilityJudgment,133,0,pearl-2,20,NULL,3,NULL,2244
1492724922,7109a2f832c33214e4681916a6297674,AcceptabilityJudgment,241,0,filler-100,44,div%2Cp%2CContext: The local TV station has a very well-known and respected reporter.%2Cp%2CTarget: I couldn't remember if the reporter%2C who does the morning news%2C had mentioned me in the big story.
1492724922,7109a2f832c33214e4681916a6297674,AcceptabilityJudgment,241,0,filler-100,44,NULL,4,NULL,2264
1492724922,7109a2f832c33214e4681916a6297674,AcceptabilityJudgment,256,0,filler-100,59,div%2Cp%2CContext: The school has a notorious bully.%2Cp%2CTarget: Pauline definitely knows who the bully%2C who beat up George%2C was harassing this week.
1492724922,7109a2f832c33214e4681916a6297674,AcceptabilityJudgment,256,0,filler-100,59,NULL,7,NULL,2727
1492724922,7109a2f832c33214e4681916a6297674,AcceptabilityJudgment,197,0,pearl-6,30,div%2Cp%2CContext: I weighed in with thoughts about corporate greed.%2Cp%2CTarget: The arrogant businesswoman said that I characterized himself as greedy but successful.
1492724922,7109a2f832c33214e4681916a6297674,AcceptabilityJudgment,197,0,pearl-6,30,NULL,5,NULL,1009
1492724922,7109a2f832c33214e4681916a6297674,AcceptabilityJudgment,276,0,filler-110,79,div%2Cp%2CContext: A podcast which parodies TED talks has been gaining popularity lately.%2Cp%2CTarget: One prominent CEO has claimed that it obviously invalidates itself by failing to deal with the very real issues discussed by TED speakers.
1492724922,7109a2f832c33214e4681916a6297674,AcceptabilityJudgment,276,0,filler-110,79,NULL,4,NULL,18535
1492724922,7109a2f832c33214e4681916a6297674,AcceptabilityJudgment,249,0,filler-100,52,div%2Cp%2CContext: There was one young fan of the author who was particularly enthusiastic about the new book.%2Cp%2CTarget: The author asked if the young fan%2C who organized the book-signing%2C had invited Mary to the event.
1492724922,7109a2f832c33214e4681916a6297674,AcceptabilityJudgment,249,0,filler-100,52,NULL,5,NULL,3628
1492724922,7109a2f832c33214e4681916a6297674,AcceptabilityJudgment,147,0,pearl-4,22,div%2Cp%2CContext: Some members of the film crew mentioned an unpleasant incident on set yesterday.%2Cp%2CTarget: The beautiful supermodel said that they described himself as cruel and abusive in the workplace.
1492724922,7109a2f832c33214e4681916a6297674,AcceptabilityJudgment,147,0,pearl-4,22,NULL,5,NULL,2677
1492724922,7109a2f832c33214e4681916a6297674,AcceptabilityJudgment,270,0,filler-110,73,div%2Cp%2CContext: Many critics were surprised that the novel so clearly referenced the author's troubled home life.%2Cp%2CTarget: The publicist insists that it clearly shows itself to be a phenomenal work of art.
1492724922,7109a2f832c33214e4681916a6297674,AcceptabilityJudgment,270,0,filler-110,73,NULL,4,NULL,1936
1492724922,7109a2f832c33214e4681916a6297674,AcceptabilityJudgment,272,0,filler-110,75,div%2Cp%2CContext: There was general outrage when a photograph which won several art competitions was revealed to have been photoshopped.%2Cp%2CTarget: One competitor has repeatedly insinuated that it misrepresented itself as an unaltered piece of photographic skill.
1492724922,7109a2f832c33214e4681916a6297674,AcceptabilityJudgment,272,0,filler-110,75,NULL,6,NULL,1194
1492724922,7109a2f832c33214e4681916a6297674,AcceptabilityJudgment,198,0,pearl-1,31,div%2Cp%2CContext: One of the informants uncovered the possibility of police corruption.%2Cp%2CTarget: The undercover policeman confessed that Zachary recorded himself talking about the secret plot.
1492724922,7109a2f832c33214e4681916a6297674,AcceptabilityJudgment,198,0,pearl-1,31,NULL,5,NULL,2943
1492724922,7109a2f832c33214e4681916a6297674,AcceptabilityJudgment,245,0,filler-100,48,div%2Cp%2CContext: A gardener was doing some shopping at Home Depot today.%2Cp%2CTarget: The contractor wondered if the gardener%2C who loves tulips%2C had met anyone at the nursery.
1492724922,7109a2f832c33214e4681916a6297674,AcceptabilityJudgment,245,0,filler-100,48,NULL,5,NULL,2223
1492724922,7109a2f832c33214e4681916a6297674,AcceptabilityJudgment,275,0,filler-110,78,div%2Cp%2CContext: A new talkshow is slated to make its debut on TV this fall.%2Cp%2CTarget: The radiohost complained that it has been shamelessly promoting itself on every channel for the last year.
1492724922,7109a2f832c33214e4681916a6297674,AcceptabilityJudgment,275,0,filler-110,78,NULL,5,NULL,1984
1492724922,7109a2f832c33214e4681916a6297674,AcceptabilityJudgment,205,0,pearl-2,32,div%2Cp%2CContext: A member of the city council was impressed with the police response to the dangerous confrontation.%2Cp%2CTarget: The brave policewoman reported that David nominated himself for the prestigious community service award.
1492724922,7109a2f832c33214e4681916a6297674,AcceptabilityJudgment,205,0,pearl-2,32,NULL,5,NULL,25422
1492724922,7109a2f832c33214e4681916a6297674,AcceptabilityJudgment,263,0,filler-110,66,div%2Cp%2CContext: In a job interview for a conservative law firm%2C I made the mistake of talking about my ties to the communist party.%2Cp%2CTarget: The officious interviewer disliked that I aligned myself so closely with such left-leaning policies.
1492724922,7109a2f832c33214e4681916a6297674,AcceptabilityJudgment,263,0,filler-110,66,NULL,4,NULL,18640
1492724922,7109a2f832c33214e4681916a6297674,AcceptabilityJudgment,294,0,filler-110,97,div%2Cp%2CContext: In a dramatic turnaround%2C the soap opera brought in significantly more viewers than expected.%2Cp%2CTarget: The shocked analyst said that it would probably continue to draw viewers for another five seasons.
1492724922,7109a2f832c33214e4681916a6297674,AcceptabilityJudgment,294,0,filler-110,97,NULL,4,NULL,15826
1492724922,7109a2f832c33214e4681916a6297674,AcceptabilityJudgment,46,0,pearl-5,5,div%2Cp%2CContext: In what became a major scandal%2C I revealed a celebrity's intimate secrets.%2Cp%2CTarget: The aspiring actress complained that I portrayed herself as petty and vindictive.
1492724922,7109a2f832c33214e4681916a6297674,AcceptabilityJudgment,46,0,pearl-5,5,NULL,3,NULL,14582
1492724922,7109a2f832c33214e4681916a6297674,AcceptabilityJudgment,282,0,filler-110,85,div%2Cp%2CContext: I went skating yesterday and fell on the ice.%2Cp%2CTarget: The ER doctor said that I was lucky to have not broken my leg.
1492724922,7109a2f832c33214e4681916a6297674,AcceptabilityJudgment,282,0,filler-110,85,NULL,4,NULL,4826
1492724922,7109a2f832c33214e4681916a6297674,AcceptabilityJudgment,274,0,filler-110,77,div%2Cp%2CContext: The small children were delighted that the storybook included many detailed illustrations.%2Cp%2CTarget: The nanny thought that it perhaps took itself a little too seriously%2C but didn't want to spoil the children's fun.
1492724922,7109a2f832c33214e4681916a6297674,AcceptabilityJudgment,274,0,filler-110,77,NULL,4,NULL,8301
1492724922,7109a2f832c33214e4681916a6297674,AcceptabilityJudgment,183,0,pearl-4,28,div%2Cp%2CContext: A few members of the jury were very persuasive in deciding the outcome of the trial.%2Cp%2CTarget: The serious newswoman reported that they convinced himself that the testimony was false and unreliable.
1492724922,7109a2f832c33214e4681916a6297674,AcceptabilityJudgment,183,0,pearl-4,28,NULL,4,NULL,19805
1492724922,7109a2f832c33214e4681916a6297674,AcceptabilityJudgment,258,0,filler-110,61,div%2Cp%2CContext: In a widely publicized television debate%2C I argued with several religious leaders about the reliability of scientific evidence.%2Cp%2CTarget: The evangelical pastor insisted that I clearly betrayed myself with comments about the scientific method.
1492724922,7109a2f832c33214e4681916a6297674,AcceptabilityJudgment,258,0,filler-110,61,NULL,5,NULL,25560
1492724922,7109a2f832c33214e4681916a6297674,AcceptabilityJudgment,247,0,filler-100,50,div%2Cp%2CContext: A couple of little boys were causing some problems for the other children at the playground.%2Cp%2CTarget: The little girl wondered if the boy who was ignoring her had played with anyone during recess.
1492724922,7109a2f832c33214e4681916a6297674,AcceptabilityJudgment,247,0,filler-100,50,NULL,4,NULL,25151
1492724922,7109a2f832c33214e4681916a6297674,AcceptabilityJudgment,89,0,pearl-6,12,div%2Cp%2CContext: I expressed deep regret for the questionable behavior.%2Cp%2CTarget: The elderly man insisted that I redeemed herself in the eyes of his family.
1492724922,7109a2f832c33214e4681916a6297674,AcceptabilityJudgment,89,0,pearl-6,12,NULL,4,NULL,15227
1492724922,7109a2f832c33214e4681916a6297674,AcceptabilityJudgment,244,0,filler-100,47,div%2Cp%2CContext: One of the lawyers in the courtroom was called into the judge's personal chambers.%2Cp%2CTarget: The judge asked who the lawyer%2C who represented the defendant%2C was working with on the case.
1492724922,7109a2f832c33214e4681916a6297674,AcceptabilityJudgment,244,0,filler-100,47,NULL,5,NULL,4138
1492724922,7109a2f832c33214e4681916a6297674,AcceptabilityJudgment,293,0,filler-110,96,div%2Cp%2CContext: From time to time I like to get away from the city and reconnect with nature.%2Cp%2CTarget: The grimy conservationist was convinced that I could be converted to his cause%2C despite my stance on federal regulation.
1492724922,7109a2f832c33214e4681916a6297674,AcceptabilityJudgment,293,0,filler-110,96,NULL,4,NULL,86291
1492724922,7109a2f832c33214e4681916a6297674,AcceptabilityJudgment,176,0,pearl-3,27,div%2Cp%2CContext: Some emotive protestors brought to light the serious ethical implications of over-breeding pets.%2Cp%2CTarget: The legendary rock star said that they inspired himself to write a new song about this social injustice.
1492724922,7109a2f832c33214e4681916a6297674,AcceptabilityJudgment,176,0,pearl-3,27,NULL,2,NULL,410
1492724922,7109a2f832c33214e4681916a6297674,AcceptabilityJudgment,267,0,filler-110,70,div%2Cp%2CContext: While on a fishing trip off the coast of Alaska%2C I caught an enormous salmon.%2Cp%2CTarget: The fishing guide asked if I wanted to ship myself the frozen fish to enjoy at home.
1492724922,7109a2f832c33214e4681916a6297674,AcceptabilityJudgment,267,0,filler-110,70,NULL,4,NULL,1758
1492724922,7109a2f832c33214e4681916a6297674,AcceptabilityJudgment,300,0,filler-110,103,div%2Cp%2CContext: The office memo scared everyone who was worried about possible downsizing.%2Cp%2CTarget: The flighty secretary admitted that it might contain information about who would be fired.
1492724922,7109a2f832c33214e4681916a6297674,AcceptabilityJudgment,300,0,filler-110,103,NULL,5,NULL,415
1492724922,7109a2f832c33214e4681916a6297674,AcceptabilityJudgment,18,0,pearl-1,1,div%2Cp%2CContext: In a recent media frenzy%2C many people said some unflattering things about Hollywood icons.%2Cp%2CTarget: The famous actress said that Jessica depicted herself as unfeeling and unaffected by public opinion.
1492724922,7109a2f832c33214e4681916a6297674,AcceptabilityJudgment,18,0,pearl-1,1,NULL,4,NULL,415
1492724922,7109a2f832c33214e4681916a6297674,AcceptabilityJudgment,255,0,filler-100,58,div%2Cp%2CContext: A couple of chatty new neighbors moved into the neighborhood recently.%2Cp%2CTarget: Billy forgot if the neighbor who moved from Indiana was dating Susan this time last year.
1492724922,7109a2f832c33214e4681916a6297674,AcceptabilityJudgment,255,0,filler-100,58,NULL,5,NULL,18234
1492724922,7109a2f832c33214e4681916a6297674,AcceptabilityJudgment,273,0,filler-110,76,div%2Cp%2CContext: An internal memo detailing corporate malfeasance was recently released to the public.%2Cp%2CTarget: The congresswoman said that it spoke for itself as evidence of corruption on Wall Street.
1492724922,7109a2f832c33214e4681916a6297674,AcceptabilityJudgment,273,0,filler-110,76,NULL,5,NULL,1170
1492724922,7109a2f832c33214e4681916a6297674,AcceptabilityJudgment,126,0,pearl-1,19,div%2Cp%2CContext: The budding actor came up in a recent conversation about signing deals with movie labels.%2Cp%2CTarget: The impatient manager insisted that Michael had committed himself to four years with the film studio.
1492724922,7109a2f832c33214e4681916a6297674,AcceptabilityJudgment,126,0,pearl-1,19,NULL,5,NULL,9166
1492724922,7109a2f832c33214e4681916a6297674,AcceptabilityJudgment,286,0,filler-110,89,div%2Cp%2CContext: Unlike many applicants for the job%2C I had carefully proofread my application before submitting it.%2Cp%2CTarget: The bossy secretary mentioned that I was the only person to properly use a semicolon.
1492724922,7109a2f832c33214e4681916a6297674,AcceptabilityJudgment,286,0,filler-110,89,NULL,6,NULL,27361
1492724922,7109a2f832c33214e4681916a6297674,AcceptabilityJudgment,280,0,filler-110,83,div%2Cp%2CContext: While still learning to climb%2C the baby orangutang fell from a dangerously high branch.%2Cp%2CTarget: The field biologist was very happy that it managed to catch itself on the way down.
1492724922,7109a2f832c33214e4681916a6297674,AcceptabilityJudgment,280,0,filler-110,83,NULL,3,NULL,2112
1492724922,7109a2f832c33214e4681916a6297674,AcceptabilityJudgment,61,0,pearl-2,8,div%2Cp%2CContext: To prank the school staff%2C a few students circulated a rumor about an undercover celebrity on campus.%2Cp%2CTarget: The gullible janitor admitted that Elizabeth tricked herself into believing that the story was true.
1492724922,7109a2f832c33214e4681916a6297674,AcceptabilityJudgment,61,0,pearl-2,8,NULL,5,NULL,1358
1492724922,7109a2f832c33214e4681916a6297674,AcceptabilityJudgment,236,0,filler-100,39,div%2Cp%2CContext: After the big brawl%2C there was actually only one student who had gotten in trouble.%2Cp%2CTarget: The principal wanted to know who the student%2C who was expelled%2C had threatened with a knife.
1492724922,7109a2f832c33214e4681916a6297674,AcceptabilityJudgment,236,0,filler-100,39,NULL,6,NULL,2097
1492724922,7109a2f832c33214e4681916a6297674,AcceptabilityJudgment,297,0,filler-110,100,div%2Cp%2CContext: The catchy new song was repeatedly played on just about every radio station.%2Cp%2CTarget: The talkshow host complained that it got stuck in his head almost every day.
1492724922,7109a2f832c33214e4681916a6297674,AcceptabilityJudgment,297,0,filler-110,100,NULL,5,NULL,5765
1492724922,7109a2f832c33214e4681916a6297674,AcceptabilityJudgment,32,0,pearl-3,3,div%2Cp%2CContext: During a closed door meeting about hiring policy%2C some employees called into question recent decisions.%2Cp%2CTarget: The industrious councilwoman insisted that they characterized herself as exceptionally helpful and diligent.
1492724922,7109a2f832c33214e4681916a6297674,AcceptabilityJudgment,32,0,pearl-3,3,NULL,5,NULL,31070
1492724922,7109a2f832c33214e4681916a6297674,AcceptabilityJudgment,303,0,filler-110,106,div%2Cp%2CContext: Many literary critics were impressed that the beautiful poem had been written by an eleven year old.%2Cp%2CTarget: The prominent journal mentioned that it was a promising start to a young career.
1492724922,7109a2f832c33214e4681916a6297674,AcceptabilityJudgment,303,0,filler-110,106,NULL,4,NULL,2057
1492724922,7109a2f832c33214e4681916a6297674,AcceptabilityJudgment,284,0,filler-110,87,div%2Cp%2CContext: The community center offers several night classes that I have taken advantage of.%2Cp%2CTarget: The excitable calligraphy teacher insisted that I have the best penmanship he has ever seen.
1492724922,7109a2f832c33214e4681916a6297674,AcceptabilityJudgment,284,0,filler-110,87,NULL,4,NULL,43960
1492724922,7109a2f832c33214e4681916a6297674,AcceptabilityJudgment,162,0,pearl-1,25,div%2Cp%2CContext: One of New York's best-known critics was featured in a Bon Apetit expose on flourishing counterculture movements in Brooklyn.%2Cp%2CTarget: The charming butcher boasted that Brandon praised himself for a job skillfully and tastefully done.
1492724922,7109a2f832c33214e4681916a6297674,AcceptabilityJudgment,162,0,pearl-1,25,NULL,4,NULL,10669
1492724922,7109a2f832c33214e4681916a6297674,AcceptabilityJudgment,264,0,filler-110,67,div%2Cp%2CContext: Thanks to a crushing social anxiety%2C I haven't had any luck trying to find a date lately.%2Cp%2CTarget: One girl admitted that I hadn't groomed myself nearly well enough to be trying speed dating.
1492724922,7109a2f832c33214e4681916a6297674,AcceptabilityJudgment,264,0,filler-110,67,NULL,4,NULL,14302
1492724922,7109a2f832c33214e4681916a6297674,AcceptabilityJudgment,235,0,filler-100,38,div%2Cp%2CContext: At the hospital%2C there are many doctors who routinely work shifts in the ER.%2Cp%2CTarget: The administrator wondered if the doctor who manages the surgery wing had treated anyone in the ER.
1492724922,7109a2f832c33214e4681916a6297674,AcceptabilityJudgment,235,0,filler-100,38,NULL,5,NULL,1901
1492724922,7109a2f832c33214e4681916a6297674,AcceptabilityJudgment,125,0,pearl-6,18,div%2Cp%2CContext: I indicated that the new strategy wouldn't be very useful in a bid for reelection.%2Cp%2CTarget: The aging congressman admitted that I underestimated herself during the long and grueling campaign.
1492724922,7109a2f832c33214e4681916a6297674,AcceptabilityJudgment,125,0,pearl-6,18,NULL,6,NULL,9535
1492724922,7109a2f832c33214e4681916a6297674,AcceptabilityJudgment,304,0,filler-110,107,div%2Cp%2CContext: Every year tourists visit the magnificent fountain to appreciate its beauty.%2Cp%2CTarget: The custodian complained that it always gets clogged with the coins they throw in.
1492724922,7109a2f832c33214e4681916a6297674,AcceptabilityJudgment,304,0,filler-110,107,NULL,4,NULL,1167
1492724922,7109a2f832c33214e4681916a6297674,AcceptabilityJudgment,287,0,filler-110,90,div%2Cp%2CContext: At a baseball game last weekend%2C I caught a fly ball hit into the stands.%2Cp%2CTarget: The concession salesman was impressed that I hadn't hurt my hand in the attempt.
1492724922,7109a2f832c33214e4681916a6297674,AcceptabilityJudgment,287,0,filler-110,90,NULL,4,NULL,15812
1492724922,7109a2f832c33214e4681916a6297674,AcceptabilityJudgment,169,0,pearl-2,26,div%2Cp%2CContext: One of the key witnesses was called into question during the trial.%2Cp%2CTarget: The friendly receptionist admitted that Daniel identified himself as a potential suspect in an ongoing investigation.
1492724922,7109a2f832c33214e4681916a6297674,AcceptabilityJudgment,169,0,pearl-2,26,NULL,5,NULL,1205
1492724922,7109a2f832c33214e4681916a6297674,AcceptabilityJudgment,302,0,filler-110,105,div%2Cp%2CContext: The sappy movie made everyone in the theater cry by the time the credits rolled.%2Cp%2CTarget: The popcorn vendor said that it had inspired some couples to propose right in the middle of the lobby.
1492724922,7109a2f832c33214e4681916a6297674,AcceptabilityJudgment,302,0,filler-110,105,NULL,4,NULL,1306
1492724922,7109a2f832c33214e4681916a6297674,AcceptabilityJudgment,265,0,filler-110,68,div%2Cp%2CContext: At a consultation with a tax attorney%2C I complained about how high property taxes are.%2Cp%2CTarget: The accountant replied that I could save myself a lot of money by diversifying my interests.
1492724922,7109a2f832c33214e4681916a6297674,AcceptabilityJudgment,265,0,filler-110,68,NULL,5,NULL,171744
1492724922,7109a2f832c33214e4681916a6297674,AcceptabilityJudgment,140,0,pearl-3,21,div%2Cp%2CContext: Some news anchors were concerned with the accuracy of some of the statements made to the public.%2Cp%2CTarget: The trustworthy policeman reported that they criticized himself for the error during the trial.
1492724922,7109a2f832c33214e4681916a6297674,AcceptabilityJudgment,140,0,pearl-3,21,NULL,5,NULL,677
1492724922,7109a2f832c33214e4681916a6297674,AcceptabilityJudgment,291,0,filler-110,94,div%2Cp%2CContext: I think it's important to be willing to try new foods.%2Cp%2CTarget: The snobby chef was impressed that I would eat anything he put in front of me.
1492724922,7109a2f832c33214e4681916a6297674,AcceptabilityJudgment,291,0,filler-110,94,NULL,4,NULL,3117
1492724922,7109a2f832c33214e4681916a6297674,AcceptabilityJudgment,248,0,filler-100,51,div%2Cp%2CContext: The newest senator is not known for having very high ethical standards.%2Cp%2CTarget: The lobbyist knew who the senator%2C who voted for higher taxes%2C had bribed during the election.
1492724922,7109a2f832c33214e4681916a6297674,AcceptabilityJudgment,248,0,filler-100,51,NULL,5,NULL,300
1492724922,7109a2f832c33214e4681916a6297674,AcceptabilityJudgment,75,0,pearl-4,10,div%2Cp%2CContext: One of the patients revealed that they had a crush on someone in the hospital.%2Cp%2CTarget: The flustered doctor complained that they called herself very attractive and made suggestive comments.
1492724922,7109a2f832c33214e4681916a6297674,AcceptabilityJudgment,75,0,pearl-4,10,NULL,4,NULL,264
1492724922,7109a2f832c33214e4681916a6297674,AcceptabilityJudgment,262,0,filler-110,65,div%2Cp%2CContext: Last night%2C I was kept up late writing college application essays.%2Cp%2CTarget: The guidance counsellor insists that I make myself more appealing to mid-range institutions.
1492724922,7109a2f832c33214e4681916a6297674,AcceptabilityJudgment,262,0,filler-110,65,NULL,5,NULL,205
1492724922,7109a2f832c33214e4681916a6297674,AcceptabilityJudgment,257,0,filler-100,60,div%2Cp%2CContext: One customer in the cafe seemed to spend all day there.%2Cp%2CTarget: The barista wondered if the customer%2C who ordered a decaf latte%2C was meeting someone in the cafe.
1492724922,7109a2f832c33214e4681916a6297674,AcceptabilityJudgment,257,0,filler-100,60,NULL,5,NULL,225
1492724922,7109a2f832c33214e4681916a6297674,AcceptabilityJudgment,90,0,pearl-1,13,div%2Cp%2CContext: A few passersby gave evidence in the case of the hit-and-run.%2Cp%2CTarget: The conscientious nanny argued that Lauren implicated herself for the accident that happened in the driveway.
1492724922,7109a2f832c33214e4681916a6297674,AcceptabilityJudgment,90,0,pearl-1,13,NULL,4,NULL,313073
1492724922,7109a2f832c33214e4681916a6297674,AcceptabilityJudgment,253,0,filler-100,56,div%2Cp%2CContext: One hacker worked on her own to launch an attack on the government.%2Cp%2CTarget: The reporter wanted to know if the hacker%2C who coded the software%2C had attacked the NSA with a virus.
1492724922,7109a2f832c33214e4681916a6297674,AcceptabilityJudgment,253,0,filler-100,56,NULL,5,NULL,15111
1492724922,7109a2f832c33214e4681916a6297674,AcceptabilityJudgment,271,0,filler-110,74,div%2Cp%2CContext: Most people are horrified that the tabloid printed those private pictures of celebrities.%2Cp%2CTarget: The respected reporter claims that it has disgraced itself as a media outlet.
1492724922,7109a2f832c33214e4681916a6297674,AcceptabilityJudgment,271,0,filler-110,74,NULL,5,NULL,5204
1492724922,7109a2f832c33214e4681916a6297674,AcceptabilityJudgment,226,0,pearl-5,35,div%2Cp%2CContext: I am known to have an uncompromising view on business ethics.%2Cp%2CTarget: The new executive revealed that I blamed himself for all the compromises made on the way to the top.
1492724922,7109a2f832c33214e4681916a6297674,AcceptabilityJudgment,226,0,pearl-5,35,NULL,4,NULL,41883
1492724922,7109a2f832c33214e4681916a6297674,AcceptabilityJudgment,238,0,filler-100,41,div%2Cp%2CContext: This town has many very well-qualified contractors that you could hire.%2Cp%2CTarget: The homeowner asked who the contractor who fixed the roof would hire for the next job.
1492724922,7109a2f832c33214e4681916a6297674,AcceptabilityJudgment,238,0,filler-100,41,NULL,5,NULL,63071
1492724922,7109a2f832c33214e4681916a6297674,AcceptabilityJudgment,278,0,filler-110,81,div%2Cp%2CContext: The insurance investigator reported that a stovetop burner started the massive fire.%2Cp%2CTarget: The homeowner swears that it ignited itself despite mounting evidence to the contrary.
1492724922,7109a2f832c33214e4681916a6297674,AcceptabilityJudgment,278,0,filler-110,81,NULL,5,NULL,12795
1492724922,7109a2f832c33214e4681916a6297674,AcceptabilityJudgment,25,0,pearl-2,2,div%2Cp%2CContext: After the devastating earthquake%2C some rescue workers received a lot of media attention.%2Cp%2CTarget: The influential congressman said that Ashley inspired herself to give back to the community more.
1492724922,7109a2f832c33214e4681916a6297674,AcceptabilityJudgment,25,0,pearl-2,2,NULL,6,NULL,1267
1492724922,7109a2f832c33214e4681916a6297674,AcceptabilityJudgment,251,0,filler-100,54,div%2Cp%2CContext: The local teenagers are known for being very cruel.%2Cp%2CTarget: Alex wondered if the teenager who was a clever prankster would target John for his next prank.
1492724922,7109a2f832c33214e4681916a6297674,AcceptabilityJudgment,251,0,filler-100,54,NULL,5,NULL,13083
1492724922,7109a2f832c33214e4681916a6297674,AcceptabilityJudgment,301,0,filler-110,104,div%2Cp%2CContext: During storytime%2C the kindergarten teacher told the children a fairytale about a witch and a princess.%2Cp%2CTarget: The worried mother complained that it might give her daughter nightmares.
1492724922,7109a2f832c33214e4681916a6297674,AcceptabilityJudgment,301,0,filler-110,104,NULL,4,NULL,572
1492724922,7109a2f832c33214e4681916a6297674,AcceptabilityJudgment,54,0,pearl-1,7,div%2Cp%2CContext: A recent interview showed a few newscasters making disparaging remarks about fashion models.%2Cp%2CTarget: The gorgeous supermodel boasted that Hannah underestimated herself when it came to giving public speeches.
1492724922,7109a2f832c33214e4681916a6297674,AcceptabilityJudgment,54,0,pearl-1,7,NULL,5,NULL,11039
1492724922,7109a2f832c33214e4681916a6297674,AcceptabilityJudgment,254,0,filler-100,57,div%2Cp%2CContext: The principal was worried about a number of students in the class.%2Cp%2CTarget: The teacher asked who the student who was failing math could talk to for some help.
1492724922,7109a2f832c33214e4681916a6297674,AcceptabilityJudgment,254,0,filler-100,57,NULL,5,NULL,3012
1492724922,7109a2f832c33214e4681916a6297674,AcceptabilityJudgment,252,0,filler-100,55,div%2Cp%2CContext: Only one doctor was assigned to every patient when the ER was overrun.%2Cp%2CTarget: The nurse asked who the doctor%2C who treated the crash victim%2C had examined very thoroughly.
1492724922,7109a2f832c33214e4681916a6297674,AcceptabilityJudgment,252,0,filler-100,55,NULL,5,NULL,1276
1492724922,7109a2f832c33214e4681916a6297674,AcceptabilityJudgment,212,0,pearl-3,33,div%2Cp%2CContext: Some popular TV personalities reported glowingly on expanding food options in the area.%2Cp%2CTarget: The irritable waiter mentioned that they complimented himself for the excellent and expensive meal.
1492724922,7109a2f832c33214e4681916a6297674,AcceptabilityJudgment,212,0,pearl-3,33,NULL,5,NULL,3057
1492724922,7109a2f832c33214e4681916a6297674,AcceptabilityJudgment,242,0,filler-100,45,div%2Cp%2CContext: Some audience members were really being difficult during much of the show this evening.%2Cp%2CTarget: The singer didn't know who the audience member who laughed out loud was heckling during the show.
1492724922,7109a2f832c33214e4681916a6297674,AcceptabilityJudgment,242,0,filler-100,45,NULL,4,NULL,854
1492724922,7109a2f832c33214e4681916a6297674,AcceptabilityJudgment,237,0,filler-100,40,div%2Cp%2CContext: The star violinist in the orchestra can be very touchy.%2Cp%2CTarget: The conductor asked if the violinist%2C who was very upset%2C had talked to anyone before coming in.
1492724922,7109a2f832c33214e4681916a6297674,AcceptabilityJudgment,237,0,filler-100,40,NULL,5,NULL,2576
1492724922,7109a2f832c33214e4681916a6297674,AcceptabilityJudgment,190,0,pearl-5,29,div%2Cp%2CContext: I held meetings with senators in DC.%2Cp%2CTarget: The corrupt senator insisted that I would appoint himself as the new county commissioner before the election.
1492724922,7109a2f832c33214e4681916a6297674,AcceptabilityJudgment,190,0,pearl-5,29,NULL,6,NULL,2257
1492724922,7109a2f832c33214e4681916a6297674,AcceptabilityJudgment,305,0,filler-110,108,div%2Cp%2CContext: The rose garden at the palace of Versailles is reportedly one of the most beautiful in the world.%2Cp%2CTarget: The wealthy heiress insisted that it would be the perfect spot for her wedding.
1492724922,7109a2f832c33214e4681916a6297674,AcceptabilityJudgment,305,0,filler-110,108,NULL,4,NULL,34623
1492724922,7109a2f832c33214e4681916a6297674,AcceptabilityJudgment,288,0,filler-110,91,div%2Cp%2CContext: At a casual cocktail party%2C I was forced to admit that I'm terrible at charades.%2Cp%2CTarget: The gracious hostess insisted that I must be better than I was claiming.
1492724922,7109a2f832c33214e4681916a6297674,AcceptabilityJudgment,288,0,filler-110,91,NULL,5,NULL,1330
1492724922,7109a2f832c33214e4681916a6297674,AcceptabilityJudgment,68,0,pearl-3,9,div%2Cp%2CContext: During the hearings%2C some controversial witnesses shed new light on the case.%2Cp%2CTarget: The innocent secretary said that they exonerated herself in the eyes of the court.
1492724922,7109a2f832c33214e4681916a6297674,AcceptabilityJudgment,68,0,pearl-3,9,NULL,5,NULL,1351
1492724922,7109a2f832c33214e4681916a6297674,AcceptabilityJudgment,281,0,filler-110,84,div%2Cp%2CContext: Japanese inventors recently announced that a new robot can perform complex feats of gymnastics.%2Cp%2CTarget: An impressed reporter looked on while it flipped itself off the edge of a balcony and onto a delicate balance beam below.
1492724922,7109a2f832c33214e4681916a6297674,AcceptabilityJudgment,281,0,filler-110,84,NULL,5,NULL,25353
1492724922,7109a2f832c33214e4681916a6297674,AcceptabilityJudgment,246,0,filler-100,49,div%2Cp%2CContext: The company put several employees in charge of the hiring process.%2Cp%2CTarget: The applicant asked who the employee who conducted the interviews would hire if he could.
1492724922,7109a2f832c33214e4681916a6297674,AcceptabilityJudgment,246,0,filler-100,49,NULL,5,NULL,2065
1492724922,7109a2f832c33214e4681916a6297674,AcceptabilityJudgment,161,0,pearl-6,24,div%2Cp%2CContext: I brought up several issues with mismanagement at the large financial firm.%2Cp%2CTarget: The diligent secretary argued that I cast himself in a negative and slanderous light at the board meeting.
1492724922,7109a2f832c33214e4681916a6297674,AcceptabilityJudgment,161,0,pearl-6,24,NULL,4,NULL,765
1492724922,7109a2f832c33214e4681916a6297674,AcceptabilityJudgment,279,0,filler-110,82,div%2Cp%2CContext: Before the long car trip%2C the dog walker tried to get the puppy to play a lot in the yard.%2Cp%2CTarget: The dog's owner hoped it would tire itself out before they had to drive across the country.
1492724922,7109a2f832c33214e4681916a6297674,AcceptabilityJudgment,279,0,filler-110,82,NULL,5,NULL,947
1492724922,7109a2f832c33214e4681916a6297674,AcceptabilityJudgment,295,0,filler-110,98,div%2Cp%2CContext: The museum pamphlet seemed to indicate that the modern art exhibit was closed.%2Cp%2CTarget: The security guard said that it had been confusing patrons for years.
1492724922,7109a2f832c33214e4681916a6297674,AcceptabilityJudgment,295,0,filler-110,98,NULL,5,NULL,34919
1492724922,7109a2f832c33214e4681916a6297674,AcceptabilityJudgment,118,0,pearl-5,17,div%2Cp%2CContext: I was extremely complimentary of the recently released classical music album.%2Cp%2CTarget: The graceful harpist said that I promoted herself as a famous musician in the making.
1492724922,7109a2f832c33214e4681916a6297674,AcceptabilityJudgment,118,0,pearl-5,17,NULL,4,NULL,2877
1492724922,7109a2f832c33214e4681916a6297674,AcceptabilityJudgment,289,0,filler-110,92,div%2Cp%2CContext: I believed that Santa was real until I was sixteen years old.%2Cp%2CTarget: The other girls at school couldn't believe that I could be so naive.
1492724922,7109a2f832c33214e4681916a6297674,AcceptabilityJudgment,289,0,filler-110,92,NULL,5,NULL,12847
1492724922,7109a2f832c33214e4681916a6297674,AcceptabilityJudgment,243,0,filler-100,46,div%2Cp%2CContext: Some of the businessmen were very vocal about their politics.%2Cp%2CTarget: The oilman wondered if the businessman who hated fossil fuels had fired someone from his company.
1492724922,7109a2f832c33214e4681916a6297674,AcceptabilityJudgment,243,0,filler-100,46,NULL,5,NULL,260605
1492724922,7109a2f832c33214e4681916a6297674,AcceptabilityJudgment,82,0,pearl-5,11,div%2Cp%2CContext: I suggested that the kitchen should hire someone new.%2Cp%2CTarget: The buxom waitress mentioned that I recommended herself for the new position.
1492724922,7109a2f832c33214e4681916a6297674,AcceptabilityJudgment,82,0,pearl-5,11,NULL,6,NULL,604
1492724922,7109a2f832c33214e4681916a6297674,AcceptabilityJudgment,283,0,filler-110,86,div%2Cp%2CContext: Last week the bookstore I frequently visit was having a huge sale on new-release hardcovers.%2Cp%2CTarget: The cashier mentioned that I bought more books than anyone else.
1492724922,7109a2f832c33214e4681916a6297674,AcceptabilityJudgment,283,0,filler-110,86,NULL,5,NULL,1062
1492724922,7109a2f832c33214e4681916a6297674,AcceptabilityJudgment,261,0,filler-110,64,div%2Cp%2CContext: At a concert last night%2C I was struggling to find a friend who had become separated from the group.%2Cp%2CTarget: The security guard noted that I had shouted myself hoarse and offered to help.
1492724922,7109a2f832c33214e4681916a6297674,AcceptabilityJudgment,261,0,filler-110,64,NULL,4,NULL,552
1492724922,7109a2f832c33214e4681916a6297674,AcceptabilityJudgment,111,0,pearl-4,16,div%2Cp%2CContext: Some of the interns caused a bit of a stir in the library.%2Cp%2CTarget: The shy schoolboy confessed that they had embarrassed herself in the cafeteria during lunch.
1492724922,7109a2f832c33214e4681916a6297674,AcceptabilityJudgment,111,0,pearl-4,16,NULL,3,NULL,1101
1492724922,7109a2f832c33214e4681916a6297674,AcceptabilityJudgment,296,0,filler-110,99,div%2Cp%2CContext: Thanks to a generous donation%2C the opera house was able to stay open for another season.%2Cp%2CTarget: The aged maestro worried that it had been struggling for years%2C and wouldn't last much longer.
1492724922,7109a2f832c33214e4681916a6297674,AcceptabilityJudgment,296,0,filler-110,99,NULL,4,NULL,264
1492724922,7109a2f832c33214e4681916a6297674,AcceptabilityJudgment,290,0,filler-110,93,div%2Cp%2CContext: While on vacation in Egypt%2C I stumbled across an ancient tomb full of treasures.%2Cp%2CTarget: The frightened tourguide worried that I had been cursed by my accidental discovery.
1492724922,7109a2f832c33214e4681916a6297674,AcceptabilityJudgment,290,0,filler-110,93,NULL,4,NULL,508
1492724922,7109a2f832c33214e4681916a6297674,AcceptabilityJudgment,97,0,pearl-2,14,div%2Cp%2CContext: One of the campus RAs caught some college students heading out for the evening.%2Cp%2CTarget: The frat boy mentioned that Courtney photographed herself on the way to the party.
1492724922,7109a2f832c33214e4681916a6297674,AcceptabilityJudgment,97,0,pearl-2,14,NULL,5,NULL,569
# Columns below this comment are as follows:
# 1. Time results were received.
# 2. MD5 hash of participant's IP address.
# 3. Controller name.
# 4. Item number.
# 5. Element number.
# 6. Type.
# 7. Group.
# 8. Field name.
# 9. Field value.
1492724922,7109a2f832c33214e4681916a6297674,Form,5,0,iriTest,NULL,fs1,1
1492724922,7109a2f832c33214e4681916a6297674,Form,5,0,iriTest,NULL,ec1,2
1492724922,7109a2f832c33214e4681916a6297674,Form,5,0,iriTest,NULL,pt1,3
1492724922,7109a2f832c33214e4681916a6297674,Form,5,0,iriTest,NULL,ec2,2
1492724922,7109a2f832c33214e4681916a6297674,Form,5,0,iriTest,NULL,fs2,1
1492724922,7109a2f832c33214e4681916a6297674,Form,5,0,iriTest,NULL,pd1,3
1492724922,7109a2f832c33214e4681916a6297674,Form,5,0,iriTest,NULL,fs3,2
1492724922,7109a2f832c33214e4681916a6297674,Form,5,0,iriTest,NULL,pt2,2
1492724922,7109a2f832c33214e4681916a6297674,Form,5,0,iriTest,NULL,ec3,2
1492724922,7109a2f832c33214e4681916a6297674,Form,5,0,iriTest,NULL,pd2,2
1492724922,7109a2f832c33214e4681916a6297674,Form,5,0,iriTest,NULL,pt3,2
1492724922,7109a2f832c33214e4681916a6297674,Form,5,0,iriTest,NULL,fs4,2
1492724922,7109a2f832c33214e4681916a6297674,Form,5,0,iriTest,NULL,pd3,3
1492724922,7109a2f832c33214e4681916a6297674,Form,5,0,iriTest,NULL,ec4,3
1492724922,7109a2f832c33214e4681916a6297674,Form,5,0,iriTest,NULL,pt4,2
1492724922,7109a2f832c33214e4681916a6297674,Form,5,0,iriTest,NULL,fs5,2
1492724922,7109a2f832c33214e4681916a6297674,Form,5,0,iriTest,NULL,pd4,1
1492724922,7109a2f832c33214e4681916a6297674,Form,5,0,iriTest,NULL,ec5,2
1492724922,7109a2f832c33214e4681916a6297674,Form,5,0,iriTest,NULL,pd5,2
1492724922,7109a2f832c33214e4681916a6297674,Form,5,0,iriTest,NULL,ec6,2
1492724922,7109a2f832c33214e4681916a6297674,Form,5,0,iriTest,NULL,pt5,1
1492724922,7109a2f832c33214e4681916a6297674,Form,5,0,iriTest,NULL,ec7,2
1492724922,7109a2f832c33214e4681916a6297674,Form,5,0,iriTest,NULL,fs6,1
1492724922,7109a2f832c33214e4681916a6297674,Form,5,0,iriTest,NULL,pd6,1
1492724922,7109a2f832c33214e4681916a6297674,Form,5,0,iriTest,NULL,pt6,1
1492724922,7109a2f832c33214e4681916a6297674,Form,5,0,iriTest,NULL,fs7,2
1492724922,7109a2f832c33214e4681916a6297674,Form,5,0,iriTest,NULL,pd7,2
1492724922,7109a2f832c33214e4681916a6297674,Form,5,0,iriTest,NULL,pt7,2
1492724922,7109a2f832c33214e4681916a6297674,Form,6,0,exit,NULL,comments,
1492724922,7109a2f832c33214e4681916a6297674,Form,6,0,exit,NULL,priorExpt,no
1492724922,7109a2f832c33214e4681916a6297674,Form,6,0,exit,NULL,priorRefl,no
1492724922,7109a2f832c33214e4681916a6297674,Form,6,0,exit,NULL,logLang,no
1492724922,7109a2f832c33214e4681916a6297674,Form,6,0,exit,NULL,logContrast,yes2
1492724922,7109a2f832c33214e4681916a6297674,Form,7,0,exit,NULL,randomfield,JhTFFVl4
1492724922,7109a2f832c33214e4681916a6297674,Form,7,0,exit,NULL,worker_id,A7KLTVEIASF4J
#
# Results on Thursday April 20 2017 22:02:02 UTC.
# USER AGENT: Mozilla/5.0 (Windows NT 10.0; WOW64) AppleWebKit/537.36 (KHTML, like Gecko) Chrome/57.0.2987.133 Safari/537.36
# Design number was non-random = 2
#
# Columns below this comment are as follows:
# 1. Time results were received.
# 2. MD5 hash of participant's IP address.
# 3. Controller name.
# 4. Item number.
# 5. Element number.
# 6. Type.
# 7. Group.
# 8. Field name.
# 9. Field value.
1492725723,274de8c4b77f028af8f9f82d8dc620c7,Form,2,0,consent,NULL,workerID,
1492725723,274de8c4b77f028af8f9f82d8dc620c7,Form,3,0,consent,NULL,consent,yes
1492725723,274de8c4b77f028af8f9f82d8dc620c7,SSForm,4,0,consent,NULL,nLang,English
1492725723,274de8c4b77f028af8f9f82d8dc620c7,SSForm,4,0,consent,NULL,pLang,English
1492725723,274de8c4b77f028af8f9f82d8dc620c7,SSForm,4,0,consent,NULL,oLang,none
1492725723,274de8c4b77f028af8f9f82d8dc620c7,SSForm,4,0,consent,NULL,dLang,English
1492725723,274de8c4b77f028af8f9f82d8dc620c7,SSForm,4,0,consent,NULL,gender,female
1492725723,274de8c4b77f028af8f9f82d8dc620c7,SSForm,4,0,consent,NULL,age,49
1492725723,274de8c4b77f028af8f9f82d8dc620c7,SSForm,4,0,consent,NULL,state,AR
# The lines below this comment are in groups of 2.
# The formats of the lines in each of these groups are as follows:
#
# Line 1:
#     Col. 1: Time results were received.
#     Col. 2: MD5 hash of participant's IP address.
#     Col. 3: Controller name.
#     Col. 4: Item number.
#     Col. 5: Element number.
#     Col. 6: Type.
#     Col. 7: Group.
#     Col. 8: Sentence (or sentence MD5).
# Line 2:
#     Col. 1: Time results were received.
#     Col. 2: MD5 hash of participant's IP address.
#     Col. 3: Controller name.
#     Col. 4: Item number.
#     Col. 5: Element number.
#     Col. 6: Type.
#     Col. 7: Group.
#     Col. 8: Question (NULL if none).
#     Col. 9: Answer.
#     Col. 10: Whether or not answer was correct (NULL if N/A).
#     Col. 11: Time taken to answer.
1492725723,274de8c4b77f028af8f9f82d8dc620c7,AcceptabilityJudgment,13,0,practice,NULL,div%2Cp%2CContext: It was Christmas time%2C and everyone was really excited.%2Cp%2CTarget: The kids decorated the ornaments onto the tree.
1492725723,274de8c4b77f028af8f9f82d8dc620c7,AcceptabilityJudgment,13,0,practice,NULL,NULL,4,NULL,10022
1492725723,274de8c4b77f028af8f9f82d8dc620c7,AcceptabilityJudgment,14,0,practice,NULL,div%2Cp%2CContext: John asked me yesterday who all was going to be coming over.%2Cp%2CTarget: I know that Bill and Mary were planning on attending the party last night.
1492725723,274de8c4b77f028af8f9f82d8dc620c7,AcceptabilityJudgment,14,0,practice,NULL,NULL,7,NULL,9013
1492725723,274de8c4b77f028af8f9f82d8dc620c7,AcceptabilityJudgment,15,0,practice,NULL,div%2Cp%2CContext: Mary is usually fairly skeptical of public officials.%2Cp%2CTarget: Which politician did she believe the scientist and?
1492725723,274de8c4b77f028af8f9f82d8dc620c7,AcceptabilityJudgment,15,0,practice,NULL,NULL,1,NULL,5796
1492725723,274de8c4b77f028af8f9f82d8dc620c7,AcceptabilityJudgment,16,0,practice,NULL,div%2Cp%2CContext: Unfortunately%2C Susy was a little bit out of the social loop.%2Cp%2CTarget: John doubted that she knew anything of what went on after work.
1492725723,274de8c4b77f028af8f9f82d8dc620c7,AcceptabilityJudgment,16,0,practice,NULL,NULL,5,NULL,8802
1492725723,274de8c4b77f028af8f9f82d8dc620c7,AcceptabilityJudgment,240,0,filler-100,43,div%2Cp%2CContext: The huge accident on the highway actually only injured one person.%2Cp%2CTarget: The cop wondered who the victim%2C who was recovering slowly%2C would blame for the accident.
1492725723,274de8c4b77f028af8f9f82d8dc620c7,AcceptabilityJudgment,240,0,filler-100,43,NULL,7,NULL,8383
1492725723,274de8c4b77f028af8f9f82d8dc620c7,AcceptabilityJudgment,113,0,pearl-6,16,div%2Cp%2CContext: I caused a bit of a stir in the library.%2Cp%2CTarget: The shy schoolboy confessed that I had embarrassed herself in the cafeteria during lunch.
1492725723,274de8c4b77f028af8f9f82d8dc620c7,AcceptabilityJudgment,113,0,pearl-6,16,NULL,1,NULL,11082
1492725723,274de8c4b77f028af8f9f82d8dc620c7,AcceptabilityJudgment,283,0,filler-110,86,div%2Cp%2CContext: Last week the bookstore I frequently visit was having a huge sale on new-release hardcovers.%2Cp%2CTarget: The cashier mentioned that I bought more books than anyone else.
1492725723,274de8c4b77f028af8f9f82d8dc620c7,AcceptabilityJudgment,283,0,filler-110,86,NULL,7,NULL,7996
1492725723,274de8c4b77f028af8f9f82d8dc620c7,AcceptabilityJudgment,256,0,filler-100,59,div%2Cp%2CContext: The school has a notorious bully.%2Cp%2CTarget: Pauline definitely knows who the bully%2C who beat up George%2C was harassing this week.
1492725723,274de8c4b77f028af8f9f82d8dc620c7,AcceptabilityJudgment,256,0,filler-100,59,NULL,6,NULL,6485
1492725723,274de8c4b77f028af8f9f82d8dc620c7,AcceptabilityJudgment,229,0,pearl-2,36,div%2Cp%2CContext: One of the underachieving employees came up in a conversation about promotion possibilities in the office.%2Cp%2CTarget: The exasperated secretary declared that Robert denied himself a chance at advancing in the company.
1492725723,274de8c4b77f028af8f9f82d8dc620c7,AcceptabilityJudgment,229,0,pearl-2,36,NULL,7,NULL,10381
1492725723,274de8c4b77f028af8f9f82d8dc620c7,AcceptabilityJudgment,236,0,filler-100,39,div%2Cp%2CContext: After the big brawl%2C there was actually only one student who had gotten in trouble.%2Cp%2CTarget: The principal wanted to know who the student%2C who was expelled%2C had threatened with a knife.
1492725723,274de8c4b77f028af8f9f82d8dc620c7,AcceptabilityJudgment,236,0,filler-100,39,NULL,7,NULL,16273
1492725723,274de8c4b77f028af8f9f82d8dc620c7,AcceptabilityJudgment,268,0,filler-110,71,div%2Cp%2CContext: Unlike many people%2C I don't enjoy scary rides at amusement parks.%2Cp%2CTarget: The concession stand employee agreed that I should confine myself to eating popsicles all day instead.
1492725723,274de8c4b77f028af8f9f82d8dc620c7,AcceptabilityJudgment,268,0,filler-110,71,NULL,2,NULL,7790
1492725723,274de8c4b77f028af8f9f82d8dc620c7,AcceptabilityJudgment,27,0,pearl-4,2,div%2Cp%2CContext: After the devastating earthquake%2C some rescue workers received a lot of media attention.%2Cp%2CTarget: The influential congressman said that they inspired herself to give back to the community more.
1492725723,274de8c4b77f028af8f9f82d8dc620c7,AcceptabilityJudgment,27,0,pearl-4,2,NULL,4,NULL,14669
1492725723,274de8c4b77f028af8f9f82d8dc620c7,AcceptabilityJudgment,297,0,filler-110,100,div%2Cp%2CContext: The catchy new song was repeatedly played on just about every radio station.%2Cp%2CTarget: The talkshow host complained that it got stuck in his head almost every day.
1492725723,274de8c4b77f028af8f9f82d8dc620c7,AcceptabilityJudgment,297,0,filler-110,100,NULL,6,NULL,10865
1492725723,274de8c4b77f028af8f9f82d8dc620c7,AcceptabilityJudgment,250,0,filler-100,53,div%2Cp%2CContext: The neighboring city has some really excellent butchers.%2Cp%2CTarget: Joan didn't remember who the butcher who sold organic beef had hired to deliver his meat.
1492725723,274de8c4b77f028af8f9f82d8dc620c7,AcceptabilityJudgment,250,0,filler-100,53,NULL,6,NULL,16402
1492725723,274de8c4b77f028af8f9f82d8dc620c7,AcceptabilityJudgment,142,0,pearl-5,21,div%2Cp%2CContext: I was concerned with the accuracy of some of the statements made to the public.%2Cp%2CTarget: The trustworthy policeman reported that I criticized himself for the error during the trial.
1492725723,274de8c4b77f028af8f9f82d8dc620c7,AcceptabilityJudgment,142,0,pearl-5,21,NULL,1,NULL,12740
1492725723,274de8c4b77f028af8f9f82d8dc620c7,AcceptabilityJudgment,294,0,filler-110,97,div%2Cp%2CContext: In a dramatic turnaround%2C the soap opera brought in significantly more viewers than expected.%2Cp%2CTarget: The shocked analyst said that it would probably continue to draw viewers for another five seasons.
1492725723,274de8c4b77f028af8f9f82d8dc620c7,AcceptabilityJudgment,294,0,filler-110,97,NULL,7,NULL,14319
1492725723,274de8c4b77f028af8f9f82d8dc620c7,AcceptabilityJudgment,277,0,filler-110,80,div%2Cp%2CContext: A fake news program ruffled a lot of feathers with a recent skit about famous politicians.%2Cp%2CTarget: The political pundit was outraged that it billed itself as a legitimate news source.
1492725723,274de8c4b77f028af8f9f82d8dc620c7,AcceptabilityJudgment,277,0,filler-110,80,NULL,7,NULL,20602
1492725723,274de8c4b77f028af8f9f82d8dc620c7,AcceptabilityJudgment,214,0,pearl-5,33,div%2Cp%2CContext: I reported glowingly on expanding food options in the area.%2Cp%2CTarget: The irritable waiter mentioned that I complimented himself for the excellent and expensive meal.
1492725723,274de8c4b77f028af8f9f82d8dc620c7,AcceptabilityJudgment,214,0,pearl-5,33,NULL,2,NULL,8949
1492725723,274de8c4b77f028af8f9f82d8dc620c7,AcceptabilityJudgment,293,0,filler-110,96,div%2Cp%2CContext: From time to time I like to get away from the city and reconnect with nature.%2Cp%2CTarget: The grimy conservationist was convinced that I could be converted to his cause%2C despite my stance on federal regulation.
1492725723,274de8c4b77f028af8f9f82d8dc620c7,AcceptabilityJudgment,293,0,filler-110,96,NULL,6,NULL,20030
1492725723,274de8c4b77f028af8f9f82d8dc620c7,AcceptabilityJudgment,261,0,filler-110,64,div%2Cp%2CContext: At a concert last night%2C I was struggling to find a friend who had become separated from the group.%2Cp%2CTarget: The security guard noted that I had shouted myself hoarse and offered to help.
1492725723,274de8c4b77f028af8f9f82d8dc620c7,AcceptabilityJudgment,261,0,filler-110,64,NULL,7,NULL,10860
1492725723,274de8c4b77f028af8f9f82d8dc620c7,AcceptabilityJudgment,63,0,pearl-4,8,div%2Cp%2CContext: To prank the school staff%2C a few students circulated a rumor about an undercover celebrity on campus.%2Cp%2CTarget: The gullible janitor admitted that they tricked herself into believing that the story was true.
1492725723,274de8c4b77f028af8f9f82d8dc620c7,AcceptabilityJudgment,63,0,pearl-4,8,NULL,2,NULL,11417
1492725723,274de8c4b77f028af8f9f82d8dc620c7,AcceptabilityJudgment,291,0,filler-110,94,div%2Cp%2CContext: I think it's important to be willing to try new foods.%2Cp%2CTarget: The snobby chef was impressed that I would eat anything he put in front of me.
1492725723,274de8c4b77f028af8f9f82d8dc620c7,AcceptabilityJudgment,291,0,filler-110,94,NULL,7,NULL,8313
1492725723,274de8c4b77f028af8f9f82d8dc620c7,AcceptabilityJudgment,267,0,filler-110,70,div%2Cp%2CContext: While on a fishing trip off the coast of Alaska%2C I caught an enormous salmon.%2Cp%2CTarget: The fishing guide asked if I wanted to ship myself the frozen fish to enjoy at home.
1492725723,274de8c4b77f028af8f9f82d8dc620c7,AcceptabilityJudgment,267,0,filler-110,70,NULL,2,NULL,10310
1492725723,274de8c4b77f028af8f9f82d8dc620c7,AcceptabilityJudgment,150,0,pearl-1,23,div%2Cp%2CContext: A prominent White House staffer had been harping on the issue of immigration reform for a long while.%2Cp%2CTarget: The republican congressman complained that Joshua represented himself poorly to the public.
1492725723,274de8c4b77f028af8f9f82d8dc620c7,AcceptabilityJudgment,150,0,pearl-1,23,NULL,4,NULL,19166
1492725723,274de8c4b77f028af8f9f82d8dc620c7,AcceptabilityJudgment,243,0,filler-100,46,div%2Cp%2CContext: Some of the businessmen were very vocal about their politics.%2Cp%2CTarget: The oilman wondered if the businessman who hated fossil fuels had fired someone from his company.
1492725723,274de8c4b77f028af8f9f82d8dc620c7,AcceptabilityJudgment,243,0,filler-100,46,NULL,7,NULL,17556
1492725723,274de8c4b77f028af8f9f82d8dc620c7,AcceptabilityJudgment,247,0,filler-100,50,div%2Cp%2CContext: A couple of little boys were causing some problems for the other children at the playground.%2Cp%2CTarget: The little girl wondered if the boy who was ignoring her had played with anyone during recess.
1492725723,274de8c4b77f028af8f9f82d8dc620c7,AcceptabilityJudgment,247,0,filler-100,50,NULL,6,NULL,15021
1492725723,274de8c4b77f028af8f9f82d8dc620c7,AcceptabilityJudgment,34,0,pearl-5,3,div%2Cp%2CContext: During a closed door meeting about hiring policy%2C I called into question recent decisions.%2Cp%2CTarget: The industrious councilwoman insisted that I characterized herself as exceptionally helpful and diligent.
1492725723,274de8c4b77f028af8f9f82d8dc620c7,AcceptabilityJudgment,34,0,pearl-5,3,NULL,1,NULL,12065
1492725723,274de8c4b77f028af8f9f82d8dc620c7,AcceptabilityJudgment,257,0,filler-100,60,div%2Cp%2CContext: One customer in the cafe seemed to spend all day there.%2Cp%2CTarget: The barista wondered if the customer%2C who ordered a decaf latte%2C was meeting someone in the cafe.
1492725723,274de8c4b77f028af8f9f82d8dc620c7,AcceptabilityJudgment,257,0,filler-100,60,NULL,7,NULL,8879
1492725723,274de8c4b77f028af8f9f82d8dc620c7,AcceptabilityJudgment,263,0,filler-110,66,div%2Cp%2CContext: In a job interview for a conservative law firm%2C I made the mistake of talking about my ties to the communist party.%2Cp%2CTarget: The officious interviewer disliked that I aligned myself so closely with such left-leaning policies.
1492725723,274de8c4b77f028af8f9f82d8dc620c7,AcceptabilityJudgment,263,0,filler-110,66,NULL,7,NULL,17628
1492725723,274de8c4b77f028af8f9f82d8dc620c7,AcceptabilityJudgment,222,0,pearl-1,35,div%2Cp%2CContext: Some of the employees were known to have an uncompromising view on business ethics.%2Cp%2CTarget: The new executive revealed that Alexander blamed himself for all the compromises made on the way to the top.
1492725723,274de8c4b77f028af8f9f82d8dc620c7,AcceptabilityJudgment,222,0,pearl-1,35,NULL,7,NULL,12760
1492725723,274de8c4b77f028af8f9f82d8dc620c7,AcceptabilityJudgment,302,0,filler-110,105,div%2Cp%2CContext: The sappy movie made everyone in the theater cry by the time the credits rolled.%2Cp%2CTarget: The popcorn vendor said that it had inspired some couples to propose right in the middle of the lobby.
1492725723,274de8c4b77f028af8f9f82d8dc620c7,AcceptabilityJudgment,302,0,filler-110,105,NULL,6,NULL,13144
1492725723,274de8c4b77f028af8f9f82d8dc620c7,AcceptabilityJudgment,274,0,filler-110,77,div%2Cp%2CContext: The small children were delighted that the storybook included many detailed illustrations.%2Cp%2CTarget: The nanny thought that it perhaps took itself a little too seriously%2C but didn't want to spoil the children's fun.
1492725723,274de8c4b77f028af8f9f82d8dc620c7,AcceptabilityJudgment,274,0,filler-110,77,NULL,5,NULL,11107
1492725723,274de8c4b77f028af8f9f82d8dc620c7,AcceptabilityJudgment,41,0,pearl-6,4,div%2Cp%2CContext: In a highly contentious criminal case%2C I was frequently misquoted.%2Cp%2CTarget: The male witness said that I misrepresented herself in the trial but the jury didn't buy it.
1492725723,274de8c4b77f028af8f9f82d8dc620c7,AcceptabilityJudgment,41,0,pearl-6,4,NULL,1,NULL,10232
1492725723,274de8c4b77f028af8f9f82d8dc620c7,AcceptabilityJudgment,242,0,filler-100,45,div%2Cp%2CContext: Some audience members were really being difficult during much of the show this evening.%2Cp%2CTarget: The singer didn't know who the audience member who laughed out loud was heckling during the show.
1492725723,274de8c4b77f028af8f9f82d8dc620c7,AcceptabilityJudgment,242,0,filler-100,45,NULL,5,NULL,16005
1492725723,274de8c4b77f028af8f9f82d8dc620c7,AcceptabilityJudgment,290,0,filler-110,93,div%2Cp%2CContext: While on vacation in Egypt%2C I stumbled across an ancient tomb full of treasures.%2Cp%2CTarget: The frightened tourguide worried that I had been cursed by my accidental discovery.
1492725723,274de8c4b77f028af8f9f82d8dc620c7,AcceptabilityJudgment,290,0,filler-110,93,NULL,7,NULL,6247
1492725723,274de8c4b77f028af8f9f82d8dc620c7,AcceptabilityJudgment,186,0,pearl-1,29,div%2Cp%2CContext: Many influential lobbyists held meetings with senators in DC.%2Cp%2CTarget: The corrupt senator insisted that Joseph would appoint himself as the new county commissioner before the election.
1492725723,274de8c4b77f028af8f9f82d8dc620c7,AcceptabilityJudgment,186,0,pearl-1,29,NULL,7,NULL,10909
1492725723,274de8c4b77f028af8f9f82d8dc620c7,AcceptabilityJudgment,286,0,filler-110,89,div%2Cp%2CContext: Unlike many applicants for the job%2C I had carefully proofread my application before submitting it.%2Cp%2CTarget: The bossy secretary mentioned that I was the only person to properly use a semicolon.
1492725723,274de8c4b77f028af8f9f82d8dc620c7,AcceptabilityJudgment,286,0,filler-110,89,NULL,6,NULL,11163
1492725723,274de8c4b77f028af8f9f82d8dc620c7,AcceptabilityJudgment,244,0,filler-100,47,div%2Cp%2CContext: One of the lawyers in the courtroom was called into the judge's personal chambers.%2Cp%2CTarget: The judge asked who the lawyer%2C who represented the defendant%2C was working with on the case.
1492725723,274de8c4b77f028af8f9f82d8dc620c7,AcceptabilityJudgment,244,0,filler-100,47,NULL,7,NULL,15336
1492725723,274de8c4b77f028af8f9f82d8dc620c7,AcceptabilityJudgment,121,0,pearl-2,18,div%2Cp%2CContext: Several pundits indicated that the new strategy wouldn't be very useful in a bid for reelection.%2Cp%2CTarget: The aging congressman admitted that Amanda underestimated herself during the long and grueling campaign.
1492725723,274de8c4b77f028af8f9f82d8dc620c7,AcceptabilityJudgment,121,0,pearl-2,18,NULL,4,NULL,10954
1492725723,274de8c4b77f028af8f9f82d8dc620c7,AcceptabilityJudgment,254,0,filler-100,57,div%2Cp%2CContext: The principal was worried about a number of students in the class.%2Cp%2CTarget: The teacher asked who the student who was failing math could talk to for some help.
1492725723,274de8c4b77f028af8f9f82d8dc620c7,AcceptabilityJudgment,254,0,filler-100,57,NULL,5,NULL,10158
1492725723,274de8c4b77f028af8f9f82d8dc620c7,AcceptabilityJudgment,273,0,filler-110,76,div%2Cp%2CContext: An internal memo detailing corporate malfeasance was recently released to the public.%2Cp%2CTarget: The congresswoman said that it spoke for itself as evidence of corruption on Wall Street.
1492725723,274de8c4b77f028af8f9f82d8dc620c7,AcceptabilityJudgment,273,0,filler-110,76,NULL,5,NULL,9876
1492725723,274de8c4b77f028af8f9f82d8dc620c7,AcceptabilityJudgment,135,0,pearl-4,20,div%2Cp%2CContext: Some of the union reps adressed the issue of over-working student interns.%2Cp%2CTarget: The industrious schoolgirl said that they allowed himself to take a break from archiving.
1492725723,274de8c4b77f028af8f9f82d8dc620c7,AcceptabilityJudgment,135,0,pearl-4,20,NULL,1,NULL,7012
1492725723,274de8c4b77f028af8f9f82d8dc620c7,AcceptabilityJudgment,270,0,filler-110,73,div%2Cp%2CContext: Many critics were surprised that the novel so clearly referenced the author's troubled home life.%2Cp%2CTarget: The publicist insists that it clearly shows itself to be a phenomenal work of art.
1492725723,274de8c4b77f028af8f9f82d8dc620c7,AcceptabilityJudgment,270,0,filler-110,73,NULL,5,NULL,17396
1492725723,274de8c4b77f028af8f9f82d8dc620c7,AcceptabilityJudgment,300,0,filler-110,103,div%2Cp%2CContext: The office memo scared everyone who was worried about possible downsizing.%2Cp%2CTarget: The flighty secretary admitted that it might contain information about who would be fired.
1492725723,274de8c4b77f028af8f9f82d8dc620c7,AcceptabilityJudgment,300,0,filler-110,103,NULL,6,NULL,8434
1492725723,274de8c4b77f028af8f9f82d8dc620c7,AcceptabilityJudgment,92,0,pearl-3,13,div%2Cp%2CContext: A few passersby gave evidence in the case of the hit-and-run.%2Cp%2CTarget: The conscientious nanny argued that they implicated herself for the accident that happened in the driveway.
1492725723,274de8c4b77f028af8f9f82d8dc620c7,AcceptabilityJudgment,92,0,pearl-3,13,NULL,3,NULL,10019
1492725723,274de8c4b77f028af8f9f82d8dc620c7,AcceptabilityJudgment,281,0,filler-110,84,div%2Cp%2CContext: Japanese inventors recently announced that a new robot can perform complex feats of gymnastics.%2Cp%2CTarget: An impressed reporter looked on while it flipped itself off the edge of a balcony and onto a delicate balance beam below.
1492725723,274de8c4b77f028af8f9f82d8dc620c7,AcceptabilityJudgment,281,0,filler-110,84,NULL,6,NULL,16653
1492725723,274de8c4b77f028af8f9f82d8dc620c7,AcceptabilityJudgment,304,0,filler-110,107,div%2Cp%2CContext: Every year tourists visit the magnificent fountain to appreciate its beauty.%2Cp%2CTarget: The custodian complained that it always gets clogged with the coins they throw in.
1492725723,274de8c4b77f028af8f9f82d8dc620c7,AcceptabilityJudgment,304,0,filler-110,107,NULL,7,NULL,7209
1492725723,274de8c4b77f028af8f9f82d8dc620c7,AcceptabilityJudgment,56,0,pearl-3,7,div%2Cp%2CContext: A recent interview showed a few newscasters making disparaging remarks about fashion models.%2Cp%2CTarget: The gorgeous supermodel boasted that they underestimated herself when it came to giving public speeches.
1492725723,274de8c4b77f028af8f9f82d8dc620c7,AcceptabilityJudgment,56,0,pearl-3,7,NULL,1,NULL,9300
1492725723,274de8c4b77f028af8f9f82d8dc620c7,AcceptabilityJudgment,279,0,filler-110,82,div%2Cp%2CContext: Before the long car trip%2C the dog walker tried to get the puppy to play a lot in the yard.%2Cp%2CTarget: The dog's owner hoped it would tire itself out before they had to drive across the country.
1492725723,274de8c4b77f028af8f9f82d8dc620c7,AcceptabilityJudgment,279,0,filler-110,82,NULL,5,NULL,13915
1492725723,274de8c4b77f028af8f9f82d8dc620c7,AcceptabilityJudgment,287,0,filler-110,90,div%2Cp%2CContext: At a baseball game last weekend%2C I caught a fly ball hit into the stands.%2Cp%2CTarget: The concession salesman was impressed that I hadn't hurt my hand in the attempt.
1492725723,274de8c4b77f028af8f9f82d8dc620c7,AcceptabilityJudgment,287,0,filler-110,90,NULL,7,NULL,9426
1492725723,274de8c4b77f028af8f9f82d8dc620c7,AcceptabilityJudgment,207,0,pearl-4,32,div%2Cp%2CContext: Some members of the city council were impressed with the police response to the dangerous confrontation.%2Cp%2CTarget: The brave policewoman reported that they nominated himself for the prestigious community service award.
1492725723,274de8c4b77f028af8f9f82d8dc620c7,AcceptabilityJudgment,207,0,pearl-4,32,NULL,1,NULL,9281
1492725723,274de8c4b77f028af8f9f82d8dc620c7,AcceptabilityJudgment,239,0,filler-100,42,div%2Cp%2CContext: Some of the dancers really didn't seem to be focusing on practice this morning.%2Cp%2CTarget: The choreographer didn't know if the dancer who danced clumsily had run into anyone during practice.
1492725723,274de8c4b77f028af8f9f82d8dc620c7,AcceptabilityJudgment,239,0,filler-100,42,NULL,5,NULL,8774
1492725723,274de8c4b77f028af8f9f82d8dc620c7,AcceptabilityJudgment,275,0,filler-110,78,div%2Cp%2CContext: A new talkshow is slated to make its debut on TV this fall.%2Cp%2CTarget: The radiohost complained that it has been shamelessly promoting itself on every channel for the last year.
1492725723,274de8c4b77f028af8f9f82d8dc620c7,AcceptabilityJudgment,275,0,filler-110,78,NULL,5,NULL,9251
1492725723,274de8c4b77f028af8f9f82d8dc620c7,AcceptabilityJudgment,221,0,pearl-6,34,div%2Cp%2CContext: I encouraged gambling addicts to take up exercising to avoid temptation.%2Cp%2CTarget: The wealthy heiress said that I prevented himself from losing any more money at the casino.
1492725723,274de8c4b77f028af8f9f82d8dc620c7,AcceptabilityJudgment,221,0,pearl-6,34,NULL,1,NULL,6056
1492725723,274de8c4b77f028af8f9f82d8dc620c7,AcceptabilityJudgment,292,0,filler-110,95,div%2Cp%2CContext: As a member of the Free Masons%2C I always laugh at conspiracy theories.%2Cp%2CTarget: The president of the club insists that I should be more concerned with public perception.
1492725723,274de8c4b77f028af8f9f82d8dc620c7,AcceptabilityJudgment,292,0,filler-110,95,NULL,7,NULL,53735
1492725723,274de8c4b77f028af8f9f82d8dc620c7,AcceptabilityJudgment,278,0,filler-110,81,div%2Cp%2CContext: The insurance investigator reported that a stovetop burner started the massive fire.%2Cp%2CTarget: The homeowner swears that it ignited itself despite mounting evidence to the contrary.
1492725723,274de8c4b77f028af8f9f82d8dc620c7,AcceptabilityJudgment,278,0,filler-110,81,NULL,5,NULL,13738
1492725723,274de8c4b77f028af8f9f82d8dc620c7,AcceptabilityJudgment,106,0,pearl-5,15,div%2Cp%2CContext: I was brought in to give advice on wilderness survival.%2Cp%2CTarget: The proud mother boasted that I taught herself how to build a fire using only two sticks and a rock.
1492725723,274de8c4b77f028af8f9f82d8dc620c7,AcceptabilityJudgment,106,0,pearl-5,15,NULL,1,NULL,16305
1492725723,274de8c4b77f028af8f9f82d8dc620c7,AcceptabilityJudgment,249,0,filler-100,52,div%2Cp%2CContext: There was one young fan of the author who was particularly enthusiastic about the new book.%2Cp%2CTarget: The author asked if the young fan%2C who organized the book-signing%2C had invited Mary to the event.
1492725723,274de8c4b77f028af8f9f82d8dc620c7,AcceptabilityJudgment,249,0,filler-100,52,NULL,4,NULL,9076
1492725723,274de8c4b77f028af8f9f82d8dc620c7,AcceptabilityJudgment,296,0,filler-110,99,div%2Cp%2CContext: Thanks to a generous donation%2C the opera house was able to stay open for another season.%2Cp%2CTarget: The aged maestro worried that it had been struggling for years%2C and wouldn't last much longer.
1492725723,274de8c4b77f028af8f9f82d8dc620c7,AcceptabilityJudgment,296,0,filler-110,99,NULL,4,NULL,19568
1492725723,274de8c4b77f028af8f9f82d8dc620c7,AcceptabilityJudgment,200,0,pearl-3,31,div%2Cp%2CContext: Some of the informants uncovered the possibility of police corruption.%2Cp%2CTarget: The undercover policeman confessed that they recorded himself talking about the secret plot.
1492725723,274de8c4b77f028af8f9f82d8dc620c7,AcceptabilityJudgment,200,0,pearl-3,31,NULL,5,NULL,7231
1492725723,274de8c4b77f028af8f9f82d8dc620c7,AcceptabilityJudgment,255,0,filler-100,58,div%2Cp%2CContext: A couple of chatty new neighbors moved into the neighborhood recently.%2Cp%2CTarget: Billy forgot if the neighbor who moved from Indiana was dating Susan this time last year.
1492725723,274de8c4b77f028af8f9f82d8dc620c7,AcceptabilityJudgment,255,0,filler-100,58,NULL,7,NULL,10630
1492725723,274de8c4b77f028af8f9f82d8dc620c7,AcceptabilityJudgment,285,0,filler-110,88,div%2Cp%2CContext: Until quite recently%2C I hadn't realized that hyenas are actually more closely related to cats than to dogs.%2Cp%2CTarget: The condescending biologist claimed that I was the first person he had met who didn't know this.
1492725723,274de8c4b77f028af8f9f82d8dc620c7,AcceptabilityJudgment,285,0,filler-110,88,NULL,7,NULL,10511
1492725723,274de8c4b77f028af8f9f82d8dc620c7,AcceptabilityJudgment,171,0,pearl-4,26,div%2Cp%2CContext: Some of the key witnesses were called into question during the trial.%2Cp%2CTarget: The friendly receptionist admitted that they identified himself as a potential suspect in an ongoing investigation.
1492725723,274de8c4b77f028af8f9f82d8dc620c7,AcceptabilityJudgment,171,0,pearl-4,26,NULL,3,NULL,9151
1492725723,274de8c4b77f028af8f9f82d8dc620c7,AcceptabilityJudgment,245,0,filler-100,48,div%2Cp%2CContext: A gardener was doing some shopping at Home Depot today.%2Cp%2CTarget: The contractor wondered if the gardener%2C who loves tulips%2C had met anyone at the nursery.
1492725723,274de8c4b77f028af8f9f82d8dc620c7,AcceptabilityJudgment,245,0,filler-100,48,NULL,7,NULL,9364
1492725723,274de8c4b77f028af8f9f82d8dc620c7,AcceptabilityJudgment,235,0,filler-100,38,div%2Cp%2CContext: At the hospital%2C there are many doctors who routinely work shifts in the ER.%2Cp%2CTarget: The administrator wondered if the doctor who manages the surgery wing had treated anyone in the ER.
1492725723,274de8c4b77f028af8f9f82d8dc620c7,AcceptabilityJudgment,235,0,filler-100,38,NULL,6,NULL,17522
1492725723,274de8c4b77f028af8f9f82d8dc620c7,AcceptabilityJudgment,77,0,pearl-6,10,div%2Cp%2CContext: I revealed that I had a crush on someone in the hospital.%2Cp%2CTarget: The flustered doctor complained that I called herself very attractive and made suggestive comments.
1492725723,274de8c4b77f028af8f9f82d8dc620c7,AcceptabilityJudgment,77,0,pearl-6,10,NULL,1,NULL,9303
1492725723,274de8c4b77f028af8f9f82d8dc620c7,AcceptabilityJudgment,272,0,filler-110,75,div%2Cp%2CContext: There was general outrage when a photograph which won several art competitions was revealed to have been photoshopped.%2Cp%2CTarget: One competitor has repeatedly insinuated that it misrepresented itself as an unaltered piece of photographic skill.
1492725723,274de8c4b77f028af8f9f82d8dc620c7,AcceptabilityJudgment,272,0,filler-110,75,NULL,7,NULL,13965
1492725723,274de8c4b77f028af8f9f82d8dc620c7,AcceptabilityJudgment,265,0,filler-110,68,div%2Cp%2CContext: At a consultation with a tax attorney%2C I complained about how high property taxes are.%2Cp%2CTarget: The accountant replied that I could save myself a lot of money by diversifying my interests.
1492725723,274de8c4b77f028af8f9f82d8dc620c7,AcceptabilityJudgment,265,0,filler-110,68,NULL,6,NULL,15938
1492725723,274de8c4b77f028af8f9f82d8dc620c7,AcceptabilityJudgment,85,0,pearl-2,12,div%2Cp%2CContext: The celebrity seemed sincerely repentent for the questionable behavior.%2Cp%2CTarget: The elderly man insisted that Alexis redeemed herself in the eyes of his family.
1492725723,274de8c4b77f028af8f9f82d8dc620c7,AcceptabilityJudgment,85,0,pearl-2,12,NULL,1,NULL,9788
1492725723,274de8c4b77f028af8f9f82d8dc620c7,AcceptabilityJudgment,303,0,filler-110,106,div%2Cp%2CContext: Many literary critics were impressed that the beautiful poem had been written by an eleven year old.%2Cp%2CTarget: The prominent journal mentioned that it was a promising start to a young career.
1492725723,274de8c4b77f028af8f9f82d8dc620c7,AcceptabilityJudgment,303,0,filler-110,106,NULL,5,NULL,8561
1492725723,274de8c4b77f028af8f9f82d8dc620c7,AcceptabilityJudgment,248,0,filler-100,51,div%2Cp%2CContext: The newest senator is not known for having very high ethical standards.%2Cp%2CTarget: The lobbyist knew who the senator%2C who voted for higher taxes%2C had bribed during the election.
1492725723,274de8c4b77f028af8f9f82d8dc620c7,AcceptabilityJudgment,248,0,filler-100,51,NULL,6,NULL,7431
1492725723,274de8c4b77f028af8f9f82d8dc620c7,AcceptabilityJudgment,49,0,pearl-2,6,div%2Cp%2CContext: Several newspapers reported that prominent members of the business community recommended the financier for the job.%2Cp%2CTarget: The skilled businessman mentioned that Taylor described herself as hardworking and industrious during the interview.
1492725723,274de8c4b77f028af8f9f82d8dc620c7,AcceptabilityJudgment,49,0,pearl-2,6,NULL,6,NULL,14387
1492725723,274de8c4b77f028af8f9f82d8dc620c7,AcceptabilityJudgment,264,0,filler-110,67,div%2Cp%2CContext: Thanks to a crushing social anxiety%2C I haven't had any luck trying to find a date lately.%2Cp%2CTarget: One girl admitted that I hadn't groomed myself nearly well enough to be trying speed dating.
1492725723,274de8c4b77f028af8f9f82d8dc620c7,AcceptabilityJudgment,264,0,filler-110,67,NULL,5,NULL,9637
1492725723,274de8c4b77f028af8f9f82d8dc620c7,AcceptabilityJudgment,284,0,filler-110,87,div%2Cp%2CContext: The community center offers several night classes that I have taken advantage of.%2Cp%2CTarget: The excitable calligraphy teacher insisted that I have the best penmanship he has ever seen.
1492725723,274de8c4b77f028af8f9f82d8dc620c7,AcceptabilityJudgment,284,0,filler-110,87,NULL,7,NULL,17712
1492725723,274de8c4b77f028af8f9f82d8dc620c7,AcceptabilityJudgment,42,0,pearl-1,5,div%2Cp%2CContext: In what became a major scandal%2C some reporters revealed a celebrity's intimate secrets.%2Cp%2CTarget: The aspiring actress complained that Sarah portrayed herself as petty and vindictive.
1492725723,274de8c4b77f028af8f9f82d8dc620c7,AcceptabilityJudgment,42,0,pearl-1,5,NULL,5,NULL,12857
1492725723,274de8c4b77f028af8f9f82d8dc620c7,AcceptabilityJudgment,298,0,filler-110,101,div%2Cp%2CContext: The mugshot showed a very prominent tattoo on the suspect's back.%2Cp%2CTarget:  The policeman hoped that it would help them track him down for arrest.
1492725723,274de8c4b77f028af8f9f82d8dc620c7,AcceptabilityJudgment,298,0,filler-110,101,NULL,6,NULL,7005
1492725723,274de8c4b77f028af8f9f82d8dc620c7,AcceptabilityJudgment,234,0,filler-100,37,div%2Cp%2CContext: A lot of really interesting customers came into the butcher shop today.%2Cp%2CTarget: The butcher asked who the customer who bought Italian sausage had invited to dinner tonight.
1492725723,274de8c4b77f028af8f9f82d8dc620c7,AcceptabilityJudgment,234,0,filler-100,37,NULL,6,NULL,11049
1492725723,274de8c4b77f028af8f9f82d8dc620c7,AcceptabilityJudgment,128,0,pearl-3,19,div%2Cp%2CContext: The budding actors came up in a recent conversation about signing deals with movie labels.%2Cp%2CTarget: The impatient manager insisted that they had committed himself to four years with the film studio.
1492725723,274de8c4b77f028af8f9f82d8dc620c7,AcceptabilityJudgment,128,0,pearl-3,19,NULL,2,NULL,10290
1492725723,274de8c4b77f028af8f9f82d8dc620c7,AcceptabilityJudgment,305,0,filler-110,108,div%2Cp%2CContext: The rose garden at the palace of Versailles is reportedly one of the most beautiful in the world.%2Cp%2CTarget: The wealthy heiress insisted that it would be the perfect spot for her wedding.
1492725723,274de8c4b77f028af8f9f82d8dc620c7,AcceptabilityJudgment,305,0,filler-110,108,NULL,7,NULL,5533
1492725723,274de8c4b77f028af8f9f82d8dc620c7,AcceptabilityJudgment,253,0,filler-100,56,div%2Cp%2CContext: One hacker worked on her own to launch an attack on the government.%2Cp%2CTarget: The reporter wanted to know if the hacker%2C who coded the software%2C had attacked the NSA with a virus.
1492725723,274de8c4b77f028af8f9f82d8dc620c7,AcceptabilityJudgment,253,0,filler-100,56,NULL,7,NULL,10517
1492725723,274de8c4b77f028af8f9f82d8dc620c7,AcceptabilityJudgment,178,0,pearl-5,27,div%2Cp%2CContext: I brought to light the serious ethical implications of over-breeding pets.%2Cp%2CTarget: The legendary rock star said that I inspired himself to write a new song about this social injustice.
1492725723,274de8c4b77f028af8f9f82d8dc620c7,AcceptabilityJudgment,178,0,pearl-5,27,NULL,2,NULL,11368
1492725723,274de8c4b77f028af8f9f82d8dc620c7,AcceptabilityJudgment,282,0,filler-110,85,div%2Cp%2CContext: I went skating yesterday and fell on the ice.%2Cp%2CTarget: The ER doctor said that I was lucky to have not broken my leg.
1492725723,274de8c4b77f028af8f9f82d8dc620c7,AcceptabilityJudgment,282,0,filler-110,85,NULL,7,NULL,4998
1492725723,274de8c4b77f028af8f9f82d8dc620c7,AcceptabilityJudgment,288,0,filler-110,91,div%2Cp%2CContext: At a casual cocktail party%2C I was forced to admit that I'm terrible at charades.%2Cp%2CTarget: The gracious hostess insisted that I must be better than I was claiming.
1492725723,274de8c4b77f028af8f9f82d8dc620c7,AcceptabilityJudgment,288,0,filler-110,91,NULL,7,NULL,6163
1492725723,274de8c4b77f028af8f9f82d8dc620c7,AcceptabilityJudgment,164,0,pearl-3,25,div%2Cp%2CContext: Some of New York's best-known critics were featured in a Bon Apetit expose on flourishing counterculture movements in Brooklyn.%2Cp%2CTarget: The charming butcher boasted that they praised himself for a job skillfully and tastefully done.
1492725723,274de8c4b77f028af8f9f82d8dc620c7,AcceptabilityJudgment,164,0,pearl-3,25,NULL,2,NULL,8973
1492725723,274de8c4b77f028af8f9f82d8dc620c7,AcceptabilityJudgment,237,0,filler-100,40,div%2Cp%2CContext: The star violinist in the orchestra can be very touchy.%2Cp%2CTarget: The conductor asked if the violinist%2C who was very upset%2C had talked to anyone before coming in.
1492725723,274de8c4b77f028af8f9f82d8dc620c7,AcceptabilityJudgment,237,0,filler-100,40,NULL,7,NULL,7588
1492725723,274de8c4b77f028af8f9f82d8dc620c7,AcceptabilityJudgment,289,0,filler-110,92,div%2Cp%2CContext: I believed that Santa was real until I was sixteen years old.%2Cp%2CTarget: The other girls at school couldn't believe that I could be so naive.
1492725723,274de8c4b77f028af8f9f82d8dc620c7,AcceptabilityJudgment,289,0,filler-110,92,NULL,7,NULL,6062
1492725723,274de8c4b77f028af8f9f82d8dc620c7,AcceptabilityJudgment,70,0,pearl-5,9,div%2Cp%2CContext: During the hearings%2C I shed new light on the case.%2Cp%2CTarget: The innocent secretary said that I exonerated herself in the eyes of the court.
1492725723,274de8c4b77f028af8f9f82d8dc620c7,AcceptabilityJudgment,70,0,pearl-5,9,NULL,2,NULL,6261
1492725723,274de8c4b77f028af8f9f82d8dc620c7,AcceptabilityJudgment,295,0,filler-110,98,div%2Cp%2CContext: The museum pamphlet seemed to indicate that the modern art exhibit was closed.%2Cp%2CTarget: The security guard said that it had been confusing patrons for years.
1492725723,274de8c4b77f028af8f9f82d8dc620c7,AcceptabilityJudgment,295,0,filler-110,98,NULL,6,NULL,11519
1492725723,274de8c4b77f028af8f9f82d8dc620c7,AcceptabilityJudgment,266,0,filler-110,69,div%2Cp%2CContext: Since becoming a devout buddhist%2C I haven't eaten any meat.%2Cp%2CTarget: The local butcher doesn't understand why I would limit myself to only eating vegetables.
1492725723,274de8c4b77f028af8f9f82d8dc620c7,AcceptabilityJudgment,266,0,filler-110,69,NULL,7,NULL,8383
1492725723,274de8c4b77f028af8f9f82d8dc620c7,AcceptabilityJudgment,20,0,pearl-3,1,div%2Cp%2CContext: In a recent media frenzy%2C many people said some unflattering things about Hollywood icons.%2Cp%2CTarget: The famous actress said that they depicted herself as unfeeling and unaffected by public opinion.
1492725723,274de8c4b77f028af8f9f82d8dc620c7,AcceptabilityJudgment,20,0,pearl-3,1,NULL,2,NULL,14798
1492725723,274de8c4b77f028af8f9f82d8dc620c7,AcceptabilityJudgment,271,0,filler-110,74,div%2Cp%2CContext: Most people are horrified that the tabloid printed those private pictures of celebrities.%2Cp%2CTarget: The respected reporter claims that it has disgraced itself as a media outlet.
1492725723,274de8c4b77f028af8f9f82d8dc620c7,AcceptabilityJudgment,271,0,filler-110,74,NULL,4,NULL,11425
1492725723,274de8c4b77f028af8f9f82d8dc620c7,AcceptabilityJudgment,251,0,filler-100,54,div%2Cp%2CContext: The local teenagers are known for being very cruel.%2Cp%2CTarget: Alex wondered if the teenager who was a clever prankster would target John for his next prank.
1492725723,274de8c4b77f028af8f9f82d8dc620c7,AcceptabilityJudgment,251,0,filler-100,54,NULL,6,NULL,7469
1492725723,274de8c4b77f028af8f9f82d8dc620c7,AcceptabilityJudgment,157,0,pearl-2,24,div%2Cp%2CContext: One of the emotional employees brought up several issues with mismanagement at the large financial firm.%2Cp%2CTarget: The diligent secretary argued that Nicholas cast himself in a negative and slanderous light at the board meeting.
1492725723,274de8c4b77f028af8f9f82d8dc620c7,AcceptabilityJudgment,157,0,pearl-2,24,NULL,7,NULL,13373
1492725723,274de8c4b77f028af8f9f82d8dc620c7,AcceptabilityJudgment,299,0,filler-110,102,div%2Cp%2CContext: In the middle of the severe storm%2C an emergency broadcast was sent out to warn about potential flooding.%2Cp%2CTarget: The weatherman worried that it wouldn't reach enough people in time.
1492725723,274de8c4b77f028af8f9f82d8dc620c7,AcceptabilityJudgment,299,0,filler-110,102,NULL,6,NULL,8670
1492725723,274de8c4b77f028af8f9f82d8dc620c7,AcceptabilityJudgment,241,0,filler-100,44,div%2Cp%2CContext: The local TV station has a very well-known and respected reporter.%2Cp%2CTarget: I couldn't remember if the reporter%2C who does the morning news%2C had mentioned me in the big story.
1492725723,274de8c4b77f028af8f9f82d8dc620c7,AcceptabilityJudgment,241,0,filler-100,44,NULL,7,NULL,18362
1492725723,274de8c4b77f028af8f9f82d8dc620c7,AcceptabilityJudgment,193,0,pearl-2,30,div%2Cp%2CContext: A private citizen weighed in with thoughts about corporate greed.%2Cp%2CTarget: The arrogant businesswoman said that John characterized himself as greedy but successful.
1492725723,274de8c4b77f028af8f9f82d8dc620c7,AcceptabilityJudgment,193,0,pearl-2,30,NULL,6,NULL,26040
1492725723,274de8c4b77f028af8f9f82d8dc620c7,AcceptabilityJudgment,280,0,filler-110,83,div%2Cp%2CContext: While still learning to climb%2C the baby orangutang fell from a dangerously high branch.%2Cp%2CTarget: The field biologist was very happy that it managed to catch itself on the way down.
1492725723,274de8c4b77f028af8f9f82d8dc620c7,AcceptabilityJudgment,280,0,filler-110,83,NULL,5,NULL,8606
1492725723,274de8c4b77f028af8f9f82d8dc620c7,AcceptabilityJudgment,238,0,filler-100,41,div%2Cp%2CContext: This town has many very well-qualified contractors that you could hire.%2Cp%2CTarget: The homeowner asked who the contractor who fixed the roof would hire for the next job.
1492725723,274de8c4b77f028af8f9f82d8dc620c7,AcceptabilityJudgment,238,0,filler-100,41,NULL,6,NULL,11340
1492725723,274de8c4b77f028af8f9f82d8dc620c7,AcceptabilityJudgment,99,0,pearl-4,14,div%2Cp%2CContext: Some of the campus RAs caught some college students heading out for the evening.%2Cp%2CTarget: The frat boy mentioned that they photographed herself on the way to the party.
1492725723,274de8c4b77f028af8f9f82d8dc620c7,AcceptabilityJudgment,99,0,pearl-4,14,NULL,1,NULL,50505
1492725723,274de8c4b77f028af8f9f82d8dc620c7,AcceptabilityJudgment,269,0,filler-110,72,div%2Cp%2CContext: I've never been to a protest or rally in my life.%2Cp%2CTarget: The FBI agent said that I cleared myself of wrongdoing by being so thoroughly a-political.
1492725723,274de8c4b77f028af8f9f82d8dc620c7,AcceptabilityJudgment,269,0,filler-110,72,NULL,6,NULL,8485
1492725723,274de8c4b77f028af8f9f82d8dc620c7,AcceptabilityJudgment,252,0,filler-100,55,div%2Cp%2CContext: Only one doctor was assigned to every patient when the ER was overrun.%2Cp%2CTarget: The nurse asked who the doctor%2C who treated the crash victim%2C had examined very thoroughly.
1492725723,274de8c4b77f028af8f9f82d8dc620c7,AcceptabilityJudgment,252,0,filler-100,55,NULL,2,NULL,15397
1492725723,274de8c4b77f028af8f9f82d8dc620c7,AcceptabilityJudgment,185,0,pearl-6,28,div%2Cp%2CContext: One member of the jury was very persuasive in deciding the outcome of the trial.%2Cp%2CTarget: The serious newswoman reported that I convinced himself that the testimony was false and unreliable.
1492725723,274de8c4b77f028af8f9f82d8dc620c7,AcceptabilityJudgment,185,0,pearl-6,28,NULL,2,NULL,6811
1492725723,274de8c4b77f028af8f9f82d8dc620c7,AcceptabilityJudgment,301,0,filler-110,104,div%2Cp%2CContext: During storytime%2C the kindergarten teacher told the children a fairytale about a witch and a princess.%2Cp%2CTarget: The worried mother complained that it might give her daughter nightmares.
1492725723,274de8c4b77f028af8f9f82d8dc620c7,AcceptabilityJudgment,301,0,filler-110,104,NULL,6,NULL,9695
1492725723,274de8c4b77f028af8f9f82d8dc620c7,AcceptabilityJudgment,262,0,filler-110,65,div%2Cp%2CContext: Last night%2C I was kept up late writing college application essays.%2Cp%2CTarget: The guidance counsellor insists that I make myself more appealing to mid-range institutions.
1492725723,274de8c4b77f028af8f9f82d8dc620c7,AcceptabilityJudgment,262,0,filler-110,65,NULL,7,NULL,11620
1492725723,274de8c4b77f028af8f9f82d8dc620c7,AcceptabilityJudgment,114,0,pearl-1,17,div%2Cp%2CContext: A publicist was extremely complimentary of the recently released classical music album.%2Cp%2CTarget: The graceful harpist said that Amber promoted herself as a famous musician in the making.
1492725723,274de8c4b77f028af8f9f82d8dc620c7,AcceptabilityJudgment,114,0,pearl-1,17,NULL,7,NULL,11200
1492725723,274de8c4b77f028af8f9f82d8dc620c7,AcceptabilityJudgment,246,0,filler-100,49,div%2Cp%2CContext: The company put several employees in charge of the hiring process.%2Cp%2CTarget: The applicant asked who the employee who conducted the interviews would hire if he could.
1492725723,274de8c4b77f028af8f9f82d8dc620c7,AcceptabilityJudgment,246,0,filler-100,49,NULL,6,NULL,24095
1492725723,274de8c4b77f028af8f9f82d8dc620c7,AcceptabilityJudgment,276,0,filler-110,79,div%2Cp%2CContext: A podcast which parodies TED talks has been gaining popularity lately.%2Cp%2CTarget: One prominent CEO has claimed that it obviously invalidates itself by failing to deal with the very real issues discussed by TED speakers.
1492725723,274de8c4b77f028af8f9f82d8dc620c7,AcceptabilityJudgment,276,0,filler-110,79,NULL,6,NULL,17187
1492725723,274de8c4b77f028af8f9f82d8dc620c7,AcceptabilityJudgment,149,0,pearl-6,22,div%2Cp%2CContext: I mentioned an unpleasant incident on set yesterday.%2Cp%2CTarget: The beautiful supermodel said that I described himself as cruel and abusive in the workplace.
1492725723,274de8c4b77f028af8f9f82d8dc620c7,AcceptabilityJudgment,149,0,pearl-6,22,NULL,1,NULL,14562
1492725723,274de8c4b77f028af8f9f82d8dc620c7,AcceptabilityJudgment,259,0,filler-110,62,div%2Cp%2CContext: After the extremely dull meeting%2C I convinced some coworkers to go out for drinks.%2Cp%2CTarget: The office secretary said that I thoroughly embarrassed myself at the bar.
1492725723,274de8c4b77f028af8f9f82d8dc620c7,AcceptabilityJudgment,259,0,filler-110,62,NULL,7,NULL,9558
1492725723,274de8c4b77f028af8f9f82d8dc620c7,AcceptabilityJudgment,260,0,filler-110,63,div%2Cp%2CContext: In a recent half marathon in San Diego%2C I finished dead last.%2Cp%2CTarget: The emergency nurse insisted I hadn't emasculated myself despite taking over eight hours to finish.
1492725723,274de8c4b77f028af8f9f82d8dc620c7,AcceptabilityJudgment,260,0,filler-110,63,NULL,6,NULL,20752
1492725723,274de8c4b77f028af8f9f82d8dc620c7,AcceptabilityJudgment,78,0,pearl-1,11,div%2Cp%2CContext: One of the chefs suggested that the kitchen should hire someone new.%2Cp%2CTarget: The buxom waitress mentioned that Megan recommended herself for the new position.
1492725723,274de8c4b77f028af8f9f82d8dc620c7,AcceptabilityJudgment,78,0,pearl-1,11,NULL,7,NULL,6526
1492725723,274de8c4b77f028af8f9f82d8dc620c7,AcceptabilityJudgment,258,0,filler-110,61,div%2Cp%2CContext: In a widely publicized television debate%2C I argued with several religious leaders about the reliability of scientific evidence.%2Cp%2CTarget: The evangelical pastor insisted that I clearly betrayed myself with comments about the scientific method.
1492725723,274de8c4b77f028af8f9f82d8dc620c7,AcceptabilityJudgment,258,0,filler-110,61,NULL,6,NULL,13133
# Columns below this comment are as follows:
# 1. Time results were received.
# 2. MD5 hash of participant's IP address.
# 3. Controller name.
# 4. Item number.
# 5. Element number.
# 6. Type.
# 7. Group.
# 8. Field name.
# 9. Field value.
1492725723,274de8c4b77f028af8f9f82d8dc620c7,Form,5,0,iriTest,NULL,fs1,3
1492725723,274de8c4b77f028af8f9f82d8dc620c7,Form,5,0,iriTest,NULL,ec1,1
1492725723,274de8c4b77f028af8f9f82d8dc620c7,Form,5,0,iriTest,NULL,pt1,2
1492725723,274de8c4b77f028af8f9f82d8dc620c7,Form,5,0,iriTest,NULL,ec2,1
1492725723,274de8c4b77f028af8f9f82d8dc620c7,Form,5,0,iriTest,NULL,fs2,1
1492725723,274de8c4b77f028af8f9f82d8dc620c7,Form,5,0,iriTest,NULL,pd1,2
1492725723,274de8c4b77f028af8f9f82d8dc620c7,Form,5,0,iriTest,NULL,fs3,1
1492725723,274de8c4b77f028af8f9f82d8dc620c7,Form,5,0,iriTest,NULL,pt2,1
1492725723,274de8c4b77f028af8f9f82d8dc620c7,Form,5,0,iriTest,NULL,ec3,1
1492725723,274de8c4b77f028af8f9f82d8dc620c7,Form,5,0,iriTest,NULL,pd2,2
1492725723,274de8c4b77f028af8f9f82d8dc620c7,Form,5,0,iriTest,NULL,pt3,1
1492725723,274de8c4b77f028af8f9f82d8dc620c7,Form,5,0,iriTest,NULL,fs4,1
1492725723,274de8c4b77f028af8f9f82d8dc620c7,Form,5,0,iriTest,NULL,pd3,2
1492725723,274de8c4b77f028af8f9f82d8dc620c7,Form,5,0,iriTest,NULL,ec4,1
1492725723,274de8c4b77f028af8f9f82d8dc620c7,Form,5,0,iriTest,NULL,pt4,0
1492725723,274de8c4b77f028af8f9f82d8dc620c7,Form,5,0,iriTest,NULL,fs5,1
1492725723,274de8c4b77f028af8f9f82d8dc620c7,Form,5,0,iriTest,NULL,pd4,1
1492725723,274de8c4b77f028af8f9f82d8dc620c7,Form,5,0,iriTest,NULL,ec5,1
1492725723,274de8c4b77f028af8f9f82d8dc620c7,Form,5,0,iriTest,NULL,pd5,3
1492725723,274de8c4b77f028af8f9f82d8dc620c7,Form,5,0,iriTest,NULL,ec6,1
1492725723,274de8c4b77f028af8f9f82d8dc620c7,Form,5,0,iriTest,NULL,pt5,1
1492725723,274de8c4b77f028af8f9f82d8dc620c7,Form,5,0,iriTest,NULL,ec7,1
1492725723,274de8c4b77f028af8f9f82d8dc620c7,Form,5,0,iriTest,NULL,fs6,1
1492725723,274de8c4b77f028af8f9f82d8dc620c7,Form,5,0,iriTest,NULL,pd6,3
1492725723,274de8c4b77f028af8f9f82d8dc620c7,Form,5,0,iriTest,NULL,pt6,1
1492725723,274de8c4b77f028af8f9f82d8dc620c7,Form,5,0,iriTest,NULL,fs7,1
1492725723,274de8c4b77f028af8f9f82d8dc620c7,Form,5,0,iriTest,NULL,pd7,3
1492725723,274de8c4b77f028af8f9f82d8dc620c7,Form,5,0,iriTest,NULL,pt7,1
1492725723,274de8c4b77f028af8f9f82d8dc620c7,Form,6,0,exit,NULL,comments,
1492725723,274de8c4b77f028af8f9f82d8dc620c7,Form,6,0,exit,NULL,priorExpt,yes
1492725723,274de8c4b77f028af8f9f82d8dc620c7,Form,6,0,exit,NULL,priorRefl,no
1492725723,274de8c4b77f028af8f9f82d8dc620c7,Form,6,0,exit,NULL,logLang,no
1492725723,274de8c4b77f028af8f9f82d8dc620c7,Form,6,0,exit,NULL,logContrast,yes2
1492725723,274de8c4b77f028af8f9f82d8dc620c7,Form,7,0,exit,NULL,randomfield,E8w6BMQ3
1492725723,274de8c4b77f028af8f9f82d8dc620c7,Form,7,0,exit,NULL,worker_id,A16G6PPH1INQL8
#
# Results on Thursday April 20 2017 22:02:12 UTC.
# USER AGENT: Mozilla/5.0 (Windows NT 10.0; WOW64; rv:52.0) Gecko/20100101 Firefox/52.0
# Design number was non-random = 3
#
# Columns below this comment are as follows:
# 1. Time results were received.
# 2. MD5 hash of participant's IP address.
# 3. Controller name.
# 4. Item number.
# 5. Element number.
# 6. Type.
# 7. Group.
# 8. Field name.
# 9. Field value.
1492725732,1b5463237e54a5aad5637d88ff1e8819,Form,2,0,consent,NULL,workerID,
1492725732,1b5463237e54a5aad5637d88ff1e8819,Form,3,0,consent,NULL,consent,yes
1492725732,1b5463237e54a5aad5637d88ff1e8819,SSForm,4,0,consent,NULL,nLang,English
1492725732,1b5463237e54a5aad5637d88ff1e8819,SSForm,4,0,consent,NULL,pLang,English
1492725732,1b5463237e54a5aad5637d88ff1e8819,SSForm,4,0,consent,NULL,oLang,none
1492725732,1b5463237e54a5aad5637d88ff1e8819,SSForm,4,0,consent,NULL,dLang,English
1492725732,1b5463237e54a5aad5637d88ff1e8819,SSForm,4,0,consent,NULL,gender,female
1492725732,1b5463237e54a5aad5637d88ff1e8819,SSForm,4,0,consent,NULL,age,37
1492725732,1b5463237e54a5aad5637d88ff1e8819,SSForm,4,0,consent,NULL,state,NJ
# The lines below this comment are in groups of 2.
# The formats of the lines in each of these groups are as follows:
#
# Line 1:
#     Col. 1: Time results were received.
#     Col. 2: MD5 hash of participant's IP address.
#     Col. 3: Controller name.
#     Col. 4: Item number.
#     Col. 5: Element number.
#     Col. 6: Type.
#     Col. 7: Group.
#     Col. 8: Sentence (or sentence MD5).
# Line 2:
#     Col. 1: Time results were received.
#     Col. 2: MD5 hash of participant's IP address.
#     Col. 3: Controller name.
#     Col. 4: Item number.
#     Col. 5: Element number.
#     Col. 6: Type.
#     Col. 7: Group.
#     Col. 8: Question (NULL if none).
#     Col. 9: Answer.
#     Col. 10: Whether or not answer was correct (NULL if N/A).
#     Col. 11: Time taken to answer.
1492725732,1b5463237e54a5aad5637d88ff1e8819,AcceptabilityJudgment,13,0,practice,NULL,div%2Cp%2CContext: It was Christmas time%2C and everyone was really excited.%2Cp%2CTarget: The kids decorated the ornaments onto the tree.
1492725732,1b5463237e54a5aad5637d88ff1e8819,AcceptabilityJudgment,13,0,practice,NULL,NULL,3,NULL,7748
1492725732,1b5463237e54a5aad5637d88ff1e8819,AcceptabilityJudgment,14,0,practice,NULL,div%2Cp%2CContext: John asked me yesterday who all was going to be coming over.%2Cp%2CTarget: I know that Bill and Mary were planning on attending the party last night.
1492725732,1b5463237e54a5aad5637d88ff1e8819,AcceptabilityJudgment,14,0,practice,NULL,NULL,1,NULL,9192
